ts,linPos_x,linPos_y,linPos_z,linVel_x,linVel_y,linVel_z,linAcc_x,linAcc_y,linAcc_z,force_x,force_y,force_z,torque_x,torque_y,torque_z,euler_x,euler_y,euler_z,angVel_x,angVel_y,angVel_z,accelerometer_x,accelerometer_y,accelerometer_z,gyroscope_x,gyroscope_y,gyroscope_z,magnetometer_x,magnetometer_y,magnetometer_z
1731876166521.0,0.0,0.0,-20.0,0.0,0.0,0.0,0.0,0.0,0.0,0.0,0.0,0.0,0.0,0.0,0.0,0.0,0.0,0.0,0.0,0.0,0.0,0.0,0.0,-16384.0,0.0,0.0,0.0,45.0,0.0,0.0
1731876166521.0,0.0,0.0,-20.0,0.0,0.0,0.0,0.0,0.0,0.0,0.0,0.0,0.0,0.0,0.0,0.0,0.0,0.0,0.0,0.0,0.0,0.0,0.0,0.0,-16384.0,0.0,0.0,0.0,45.0,0.0,0.0
1731876166538.0,0.0,0.0,-20.0,0.0,0.0,0.0,0.0,0.0,0.0,0.0,0.0,0.0,0.0,0.0,0.0,0.0,0.0,0.0,0.0,0.0,0.0,0.0,0.0,-16384.0,0.0,0.0,0.0,45.0,0.0,0.0
1731876166588.0,0.0,0.0,-20.0,0.0,0.0,0.0,0.0,0.0,0.0,0.0,0.0,0.0,0.0,0.0,0.0,0.0,0.0,0.0,0.0,0.0,0.0,0.0,0.0,-16384.0,0.0,0.0,0.0,45.0,0.0,0.0
1731876166605.0,0.0,0.0,-20.0,0.0,0.0,0.0,0.0,0.0,0.0,0.0,0.0,0.0,0.0,0.0,0.0,0.0,0.0,0.0,0.0,0.0,0.0,0.0,0.0,-16384.0,0.0,0.0,0.0,45.0,0.0,0.0
1731876166621.0,0.0,0.0,-20.0,0.0,0.0,0.0,0.0,0.0,0.0,0.0,0.0,0.0,0.0,0.0,0.0,0.0,0.0,0.0,0.0,0.0,0.0,0.0,0.0,-16384.0,0.0,0.0,0.0,45.0,0.0,0.0
1731876166638.0,0.0,0.0,-20.0,0.0,0.0,0.0,0.0,0.0,0.0,0.0,0.0,0.0,0.0,0.0,0.0,0.0,0.0,0.0,0.0,0.0,0.0,0.0,0.0,-16384.0,0.0,0.0,0.0,45.0,0.0,0.0
1731876166688.0,0.0,0.0,-20.0,0.0,0.0,0.0,0.0,0.0,0.0,0.0,0.0,0.0,0.0,0.0,0.0,0.0,0.0,0.0,0.0,0.0,0.0,0.0,0.0,-16384.0,0.0,0.0,0.0,45.0,0.0,0.0
1731876166705.0,0.0,0.0,-20.0,0.0,0.0,0.0,0.0,0.0,0.0,0.0,0.0,0.0,0.0,0.0,0.0,0.0,0.0,0.0,0.0,0.0,0.0,0.0,0.0,-16384.0,0.0,0.0,0.0,45.0,0.0,0.0
1731876166722.0,0.0,0.0,-20.0,0.0,0.0,0.0,0.0,0.0,0.0,0.0,0.0,0.0,0.0,0.0,0.0,0.0,0.0,0.0,0.0,0.0,0.0,0.0,0.0,-16384.0,0.0,0.0,0.0,45.0,0.0,0.0
1731876166738.0,0.0,0.0,-20.0,0.0,0.0,0.0,0.0,0.0,0.0,0.0,0.0,0.0,0.0,0.0,0.0,0.0,0.0,0.0,0.0,0.0,0.0,0.0,0.0,-16384.0,0.0,0.0,0.0,45.0,0.0,0.0
1731876166772.0,0.0,0.0,-20.0,0.0,0.0,0.0,0.0,0.0,0.0,0.0,0.0,0.0,0.0,0.0,0.0,0.0,0.0,0.0,0.0,0.0,0.0,0.0,0.0,-16384.0,0.0,0.0,0.0,45.0,0.0,0.0
1731876166805.0,0.0,0.0,-20.0,0.0,0.0,0.0,0.0,0.0,0.0,0.0,0.0,0.0,0.0,0.0,0.0,0.0,0.0,0.0,0.0,0.0,0.0,0.0,0.0,-16384.0,0.0,0.0,0.0,45.0,0.0,0.0
1731876166822.0,0.0,0.0,-20.0,0.0,0.0,0.0,0.0,0.0,0.0,0.0,0.0,0.0,0.0,0.0,0.0,0.0,0.0,0.0,0.0,0.0,0.0,0.0,0.0,-16384.0,0.0,0.0,0.0,45.0,0.0,0.0
1731876166838.0,0.0,0.0,-20.0,0.0,0.0,0.0,0.0,0.0,0.0,0.0,0.0,0.0,0.0,0.0,0.0,0.0,0.0,0.0,0.0,0.0,0.0,0.0,0.0,-16384.0,0.0,0.0,0.0,45.0,0.0,0.0
1731876166872.0,0.0,0.0,-20.0,0.0,0.0,0.0,0.0,0.0,0.0,0.0,0.0,0.0,0.0,0.0,0.0,0.0,0.0,0.0,0.0,0.0,0.0,0.0,0.0,-16384.0,0.0,0.0,0.0,45.0,0.0,0.0
1731876166905.0,0.0,0.0,-20.0,0.0,0.0,0.0,0.0,0.0,0.0,0.0,0.0,0.0,0.0,0.0,0.0,0.0,0.0,0.0,0.0,0.0,0.0,0.0,0.0,-16384.0,0.0,0.0,0.0,45.0,0.0,0.0
1731876166922.0,0.0,0.0,-20.0,0.0,0.0,0.0,0.0,0.0,0.0,0.0,0.0,0.0,0.0,0.0,0.0,0.0,0.0,0.0,0.0,0.0,0.0,0.0,0.0,-16384.0,0.0,0.0,0.0,45.0,0.0,0.0
1731876166922.0,0.0,0.0,-20.0,0.0,0.0,0.0,0.0,0.0,0.0,0.0,0.0,0.0,0.0,0.0,0.0,0.0,0.0,0.0,0.0,0.0,0.0,0.0,0.0,-16384.0,0.0,0.0,0.0,45.0,0.0,0.0
1731876166973.0,0.0,0.0,-20.0,0.0,0.0,0.0,0.0,0.0,0.0,0.0,0.0,0.0,0.0,0.0,0.0,0.0,0.0,0.0,0.0,-0.03190246596932411,0.0,0.0,0.0,-16384.0,0.0,-239.5834503173828,0.0,45.0,0.0,0.0
1731876166989.0,0.0,0.0,-20.0,0.0,0.0,0.0,0.0,0.0,0.0,0.0,0.0,0.0,0.0,0.0,0.0,0.0,-0.03655753284692764,0.0,0.0,-0.023376185446977615,0.0,-10.4537992477417,0.0,-16383.9970703125,0.0,-175.5521697998047,0.0,44.99999237060547,0.0,-0.028712216764688492
1731876167023.0,0.0,0.0,-20.0,0.0,0.0,0.0,0.0,0.0,0.0,0.0,0.0,0.0,0.0,0.0,0.0,0.0,-0.09010450541973114,0.0,0.0,-0.01483782660216093,0.0,-25.76580047607422,0.0,-16383.9794921875,0.0,-111.43018341064453,0.0,44.999942779541016,0.0,-0.07076788693666458
1731876167023.0,0.0,0.0,-20.0,0.0,0.0,0.0,0.0,0.0,0.0,0.0,0.0,0.0,0.0,0.0,0.0,0.0,-0.09010450541973114,0.0,0.0,-0.01483782660216093,0.0,-25.76580047607422,0.0,-16383.9794921875,0.0,-111.43018341064453,0.0,44.999942779541016,0.0,-0.07076788693666458
1731876167073.0,0.0,0.0,-20.0,0.0,0.0,0.0,0.0,0.0,0.0,0.0,0.0,0.0,0.0,0.0,0.0,0.0,-0.1143752932548523,0.0,0.0,0.027438977733254433,0.0,-32.70613479614258,0.0,-16383.9677734375,0.0,206.06321716308594,0.0,44.99991226196289,0.0,-0.08983008563518524
1731876167089.0,0.0,0.0,-20.0,0.0,0.0,0.0,0.0,0.0,0.0,0.0,0.0,0.0,0.0,0.0,0.0,0.0,-0.08293253183364868,0.0,0.0,0.05262935161590576,0.0,-23.71494483947754,0.0,-16383.982421875,0.0,395.2397155761719,0.0,44.99995040893555,0.0,-0.06513503938913345
1731876167123.0,0.0,0.0,-20.0,0.0,0.0,0.0,0.0,0.0,0.0,0.0,0.0,0.0,0.0,0.0,0.0,0.0,0.0567626953125,0.0,0.0,0.10256455093622208,0.0,16.23155975341797,0.0,-16383.9921875,0.0,770.2467041015625,0.0,44.999977111816406,0.0,0.04458130896091461
1731876167123.0,0.0,0.0,-20.0,0.0,0.0,0.0,0.0,0.0,0.0,0.0,0.0,0.0,0.0,0.0,0.0,0.0,0.0567626953125,0.0,0.0,0.10256455093622208,0.0,16.23155975341797,0.0,-16383.9921875,0.0,770.2467041015625,0.0,44.999977111816406,0.0,0.04458130896091461
1731876167139.0,0.0,0.0,-20.0,0.0,0.0,0.0,0.0,0.0,0.0,0.0,0.0,0.0,0.0,0.0,0.0,0.0,0.174285888671875,0.0,0.0,0.1356099545955658,0.0,49.83780288696289,0.0,-16383.923828125,0.0,1018.4134521484375,0.0,44.99979019165039,0.0,0.13688361644744873
1731876167189.0,0.0,0.0,-20.0,0.0,0.0,0.0,0.0,0.0,0.0,0.0,0.0,0.0,0.0,0.0,0.0,0.0,0.540924072265625,0.0,0.0,0.2000858336687088,0.0,154.67750549316406,0.0,-16383.2685546875,0.0,1502.6190185546875,0.0,44.99799346923828,0.0,0.4248344600200653
1731876167189.0,0.0,0.0,-20.0,0.0,0.0,0.0,0.0,0.0,0.0,0.0,0.0,0.0,0.0,0.0,0.0,0.0,0.540924072265625,0.0,0.0,0.2000858336687088,0.0,154.67750549316406,0.0,-16383.2685546875,0.0,1502.6190185546875,0.0,44.99799346923828,0.0,0.4248344600200653
1731876167255.0,0.0,0.0,-20.0,0.0,0.0,0.0,0.0,0.0,0.0,0.0,0.0,0.0,0.0,0.0,0.0,0.0,1.026702880859375,0.0,0.0,0.23668481409549713,0.0,293.5748291015625,0.0,-16381.369140625,0.0,1777.4727783203125,0.0,44.992774963378906,0.0,0.8063273429870605
1731876167256.0,0.0,0.0,-20.0,0.0,0.0,0.0,0.0,0.0,0.0,0.0,0.0,0.0,0.0,0.0,0.0,0.0,1.29791259765625,0.0,0.0,0.2366611212491989,0.0,371.1125183105469,0.0,-16379.796875,0.0,1777.2947998046875,0.0,44.98845672607422,0.0,1.0192909240722656
1731876167272.0,0.0,0.0,-20.0,0.0,0.0,0.0,0.0,0.0,0.0,0.0,0.0,0.0,0.0,0.0,0.0,0.0,1.569122314453125,0.0,0.0,0.291696697473526,0.0,448.64190673828125,0.0,-16377.8564453125,0.0,2190.60498046875,0.0,44.98312759399414,0.0,1.232231855392456
1731876167305.0,0.0,0.0,-20.0,0.0,0.0,0.0,0.0,0.0,0.0,0.0,0.0,0.0,0.0,0.0,0.0,0.0,2.244873046875,0.0,0.0,0.29614537954330444,0.0,641.7678833007812,0.0,-16371.4248046875,0.0,2224.013916015625,0.0,44.9654655456543,0.0,1.7626681327819824
1731876167322.0,0.0,0.0,-20.0,0.0,0.0,0.0,0.0,0.0,0.0,0.0,0.0,0.0,0.0,0.0,0.0,0.0,2.584228515625,0.0,0.0,0.29420310258865356,0.0,738.7218627929688,0.0,-16367.337890625,0.0,2209.427734375,0.0,44.9542350769043,0.0,2.0289602279663086
1731876167339.0,0.0,0.0,-20.0,0.0,0.0,0.0,0.0,0.0,0.0,0.0,0.0,0.0,0.0,0.0,0.0,0.0,2.921356201171875,0.0,0.0,0.29215970635414124,0.0,835.0137939453125,0.0,-16362.7080078125,0.0,2194.08203125,0.0,44.94152069091797,0.0,2.293433904647827
1731876167372.0,0.0,0.0,-20.0,0.0,0.0,0.0,0.0,0.0,0.0,0.0,0.0,0.0,0.0,0.0,0.0,0.0,3.256134033203125,0.0,0.0,0.28789710998535156,0.0,930.60595703125,0.0,-16357.55078125,0.0,2162.070556640625,0.0,44.92735290527344,0.0,2.555985689163208
1731876167389.0,0.0,0.0,-20.0,0.0,0.0,0.0,0.0,0.0,0.0,0.0,0.0,0.0,0.0,0.0,0.0,0.0,3.5860595703125,0.0,0.0,0.28561699390411377,0.0,1024.7813720703125,0.0,-16351.919921875,0.0,2144.947021484375,0.0,44.911888122558594,0.0,2.814646005630493
1731876167422.0,0.0,0.0,-20.0,0.0,0.0,0.0,0.0,0.0,0.0,0.0,0.0,0.0,0.0,0.0,0.0,0.0,4.237945556640625,0.0,0.0,0.2808782160282135,0.0,1210.7559814453125,0.0,-16339.2021484375,0.0,2109.359619140625,0.0,44.87696075439453,0.0,3.3254406452178955
1731876167422.0,0.0,0.0,-20.0,0.0,0.0,0.0,0.0,0.0,0.0,0.0,0.0,0.0,0.0,0.0,0.0,0.0,4.237945556640625,0.0,0.0,0.2808782160282135,0.0,1210.7559814453125,0.0,-16339.2021484375,0.0,2109.359619140625,0.0,44.87696075439453,0.0,3.3254406452178955
1731876167472.0,0.0,0.0,-20.0,0.0,0.0,0.0,0.0,0.0,0.0,0.0,0.0,0.0,0.0,0.0,0.0,0.0,4.8787841796875,0.0,0.0,0.2731272280216217,0.0,1393.42626953125,0.0,-16324.6396484375,0.0,2051.150634765625,0.0,44.83695983886719,0.0,3.8271596431732178
1731876167489.0,0.0,0.0,-20.0,0.0,0.0,0.0,0.0,0.0,0.0,0.0,0.0,0.0,0.0,0.0,0.0,0.0,5.1917724609375,0.0,0.0,0.2703963816165924,0.0,1482.5811767578125,0.0,-16316.7841796875,0.0,2030.642333984375,0.0,44.81538391113281,0.0,4.072031021118164
1731876167505.0,0.0,0.0,-20.0,0.0,0.0,0.0,0.0,0.0,0.0,0.0,0.0,0.0,0.0,0.0,0.0,0.0,5.501617431640625,0.0,0.0,0.26759016513824463,0.0,1570.79736328125,0.0,-16308.52734375,0.0,2009.5679931640625,0.0,44.79270935058594,0.0,4.314323902130127
1731876167522.0,0.0,0.0,-20.0,0.0,0.0,0.0,0.0,0.0,0.0,0.0,0.0,0.0,0.0,0.0,0.0,0.0,5.808258056640625,0.0,0.0,0.2647254168987274,0.0,1658.0556640625,0.0,-16299.8857421875,0.0,1988.0540771484375,0.0,44.76897430419922,0.0,4.553986072540283
1731876167539.0,0.0,0.0,-20.0,0.0,0.0,0.0,0.0,0.0,0.0,0.0,0.0,0.0,0.0,0.0,0.0,0.0,6.111602783203125,0.0,0.0,0.26174938678741455,0.0,1744.3294677734375,0.0,-16290.87890625,0.0,1965.7044677734375,0.0,44.744239807128906,0.0,4.7909440994262695
1731876167589.0,0.0,0.0,-20.0,0.0,0.0,0.0,0.0,0.0,0.0,0.0,0.0,0.0,0.0,0.0,0.0,0.0,6.704498291015625,0.0,0.0,0.2525097727775574,0.0,1912.8109130859375,0.0,-16271.958984375,0.0,1896.316162109375,0.0,44.69226837158203,0.0,5.253692150115967
1731876167606.0,0.0,0.0,-20.0,0.0,0.0,0.0,0.0,0.0,0.0,0.0,0.0,0.0,0.0,0.0,0.0,0.0,6.993865966796875,0.0,0.0,0.24924583733081818,0.0,1994.9664306640625,0.0,-16262.08984375,0.0,1871.804443359375,0.0,44.665164947509766,0.0,5.479339122772217
1731876167622.0,0.0,0.0,-20.0,0.0,0.0,0.0,0.0,0.0,0.0,0.0,0.0,0.0,0.0,0.0,0.0,0.0,7.27947998046875,0.0,0.0,0.24599701166152954,0.0,2076.006103515625,0.0,-16251.9443359375,0.0,1847.4061279296875,0.0,44.63729476928711,0.0,5.701920986175537
1731876167639.0,0.0,0.0,-20.0,0.0,0.0,0.0,0.0,0.0,0.0,0.0,0.0,0.0,0.0,0.0,0.0,0.0,7.561370849609375,0.0,0.0,0.24255739152431488,0.0,2155.939208984375,0.0,-16241.5322265625,0.0,1821.5750732421875,0.0,44.608699798583984,0.0,5.921463966369629
1731876167672.0,0.0,0.0,-20.0,0.0,0.0,0.0,0.0,0.0,0.0,0.0,0.0,0.0,0.0,0.0,0.0,0.0,7.839324951171875,0.0,0.0,0.2355920970439911,0.0,2234.70458984375,0.0,-16230.8828125,0.0,1769.2666015625,0.0,44.57945251464844,0.0,6.137799263000488
1731876167689.0,0.0,0.0,-20.0,0.0,0.0,0.0,0.0,0.0,0.0,0.0,0.0,0.0,0.0,0.0,0.0,0.0,8.109283447265625,0.0,0.0,0.23201362788677216,0.0,2311.154052734375,0.0,-16220.1728515625,0.0,1742.3927001953125,0.0,44.55003356933594,0.0,6.347774028778076
1731876167722.0,0.0,0.0,-20.0,0.0,0.0,0.0,0.0,0.0,0.0,0.0,0.0,0.0,0.0,0.0,0.0,0.0,8.636871337890625,0.0,0.0,0.22470474243164062,0.0,2460.41162109375,0.0,-16198.2041015625,0.0,1687.50390625,0.0,44.48969650268555,0.0,6.7577223777771
1731876167722.0,0.0,0.0,-20.0,0.0,0.0,0.0,0.0,0.0,0.0,0.0,0.0,0.0,0.0,0.0,0.0,0.0,8.636871337890625,0.0,0.0,0.22470474243164062,0.0,2460.41162109375,0.0,-16198.2041015625,0.0,1687.50390625,0.0,44.48969650268555,0.0,6.7577223777771
1731876167739.0,0.0,0.0,-20.0,0.0,0.0,0.0,0.0,0.0,0.0,0.0,0.0,0.0,0.0,0.0,0.0,0.0,8.89434814453125,0.0,0.0,0.22091519832611084,0.0,2533.17822265625,0.0,-16186.984375,0.0,1659.044921875,0.0,44.45888137817383,0.0,6.957581996917725
1731876167789.0,0.0,0.0,-20.0,0.0,0.0,0.0,0.0,0.0,0.0,0.0,0.0,0.0,0.0,0.0,0.0,0.0,9.391845703125,0.0,0.0,0.2092357724905014,0.0,2673.632080078125,0.0,-16164.37890625,0.0,1571.333984375,0.0,44.396793365478516,0.0,7.343349933624268
1731876167806.0,0.0,0.0,-20.0,0.0,0.0,0.0,0.0,0.0,0.0,0.0,0.0,0.0,0.0,0.0,0.0,0.0,9.631591796875,0.0,0.0,0.20522688329219818,0.0,2741.24609375,0.0,-16153.0498046875,0.0,1541.2276611328125,0.0,44.36567687988281,0.0,7.529057502746582
1731876167822.0,0.0,0.0,-20.0,0.0,0.0,0.0,0.0,0.0,0.0,0.0,0.0,0.0,0.0,0.0,0.0,0.0,9.86676025390625,0.0,0.0,0.2011832445859909,0.0,2807.5224609375,0.0,-16141.6630859375,0.0,1510.8604736328125,0.0,44.33440017700195,0.0,7.711090564727783
1731876167839.0,0.0,0.0,-20.0,0.0,0.0,0.0,0.0,0.0,0.0,0.0,0.0,0.0,0.0,0.0,0.0,0.0,10.097320556640625,0.0,0.0,0.1970614194869995,0.0,2872.4541015625,0.0,-16130.234375,0.0,1479.9061279296875,0.0,44.30301284790039,0.0,7.889430999755859
1731876167889.0,0.0,0.0,-20.0,0.0,0.0,0.0,0.0,0.0,0.0,0.0,0.0,0.0,0.0,0.0,0.0,0.0,10.53924560546875,0.0,0.0,0.18428444862365723,0.0,2996.78076171875,0.0,-16107.599609375,0.0,1383.95263671875,0.0,44.2408447265625,0.0,8.230904579162598
1731876167906.0,0.0,0.0,-20.0,0.0,0.0,0.0,0.0,0.0,0.0,0.0,0.0,0.0,0.0,0.0,0.0,0.0,10.75042724609375,0.0,0.0,0.17997290194034576,0.0,3056.1298828125,0.0,-16096.4443359375,0.0,1351.573486328125,0.0,44.210205078125,0.0,8.393911361694336
1731876167923.0,0.0,0.0,-20.0,0.0,0.0,0.0,0.0,0.0,0.0,0.0,0.0,0.0,0.0,0.0,0.0,0.0,10.9566650390625,0.0,0.0,0.17550693452358246,0.0,3114.049560546875,0.0,-16085.33984375,0.0,1318.03466796875,0.0,44.17970657348633,0.0,8.552992820739746
1731876167940.0,0.0,0.0,-20.0,0.0,0.0,0.0,0.0,0.0,0.0,0.0,0.0,0.0,0.0,0.0,0.0,0.0,11.15777587890625,0.0,0.0,0.17112068831920624,0.0,3170.49072265625,0.0,-16074.3115234375,0.0,1285.094482421875,0.0,44.1494140625,0.0,8.708012580871582
1731876167973.0,0.0,0.0,-20.0,0.0,0.0,0.0,0.0,0.0,0.0,0.0,0.0,0.0,0.0,0.0,0.0,0.0,11.353851318359375,0.0,0.0,0.162084698677063,0.0,3225.480712890625,0.0,-16063.3662109375,0.0,1217.2353515625,0.0,44.119354248046875,0.0,8.859046936035156
1731876168007.0,0.0,0.0,-20.0,0.0,0.0,0.0,0.0,0.0,0.0,0.0,0.0,0.0,0.0,0.0,0.0,0.0,11.7200927734375,0.0,0.0,0.15285858511924744,0.0,3328.09326171875,0.0,-16042.4189453125,0.0,1147.948486328125,0.0,44.06182098388672,0.0,9.140881538391113
1731876168023.0,0.0,0.0,-20.0,0.0,0.0,0.0,0.0,0.0,0.0,0.0,0.0,0.0,0.0,0.0,0.0,0.0,11.895233154296875,0.0,0.0,0.14819763600826263,0.0,3377.11572265625,0.0,-16032.171875,0.0,1112.9453125,0.0,44.03367614746094,0.0,9.275525093078613
1731876168040.0,0.0,0.0,-20.0,0.0,0.0,0.0,0.0,0.0,0.0,0.0,0.0,0.0,0.0,0.0,0.0,0.0,12.0650634765625,0.0,0.0,0.14348675310611725,0.0,3424.62158203125,0.0,-16022.0927734375,0.0,1077.567138671875,0.0,44.00598907470703,0.0,9.406003952026367
1731876168073.0,0.0,0.0,-20.0,0.0,0.0,0.0,0.0,0.0,0.0,0.0,0.0,0.0,0.0,0.0,0.0,0.0,12.2294921875,0.0,0.0,0.13398981094360352,0.0,3470.587890625,0.0,-16012.1962890625,0.0,1006.246337890625,0.0,43.97881317138672,0.0,9.532254219055176
1731876168107.0,0.0,0.0,-20.0,0.0,0.0,0.0,0.0,0.0,0.0,0.0,0.0,0.0,0.0,0.0,0.0,0.0,12.531219482421875,0.0,0.0,0.1243443414568901,0.0,3554.862060546875,0.0,-15993.7001953125,0.0,933.8101196289062,0.0,43.92800521850586,0.0,9.763720512390137
1731876168123.0,0.0,0.0,-20.0,0.0,0.0,0.0,0.0,0.0,0.0,0.0,0.0,0.0,0.0,0.0,0.0,0.0,12.6737060546875,0.0,0.0,0.11942889541387558,0.0,3594.625,0.0,-15984.8095703125,0.0,896.895751953125,0.0,43.90359115600586,0.0,9.872933387756348
1731876168123.0,0.0,0.0,-20.0,0.0,0.0,0.0,0.0,0.0,0.0,0.0,0.0,0.0,0.0,0.0,0.0,0.0,12.6737060546875,0.0,0.0,0.11942889541387558,0.0,3594.625,0.0,-15984.8095703125,0.0,896.895751953125,0.0,43.90359115600586,0.0,9.872933387756348
1731876168174.0,0.0,0.0,-20.0,0.0,0.0,0.0,0.0,0.0,0.0,0.0,0.0,0.0,0.0,0.0,0.0,0.0,12.9417724609375,0.0,0.0,0.10453196614980698,0.0,3669.37255859375,0.0,-15967.81640625,0.0,785.021728515625,0.0,43.85691833496094,0.0,10.07823371887207
1731876168190.0,0.0,0.0,-20.0,0.0,0.0,0.0,0.0,0.0,0.0,0.0,0.0,0.0,0.0,0.0,0.0,0.0,13.061553955078125,0.0,0.0,0.0996008962392807,0.0,3702.74658203125,0.0,-15960.1103515625,0.0,747.989990234375,0.0,43.835750579833984,0.0,10.169897079467773
1731876168223.0,0.0,0.0,-20.0,0.0,0.0,0.0,0.0,0.0,0.0,0.0,0.0,0.0,0.0,0.0,0.0,0.0,13.284088134765625,0.0,0.0,0.08949239552021027,0.0,3764.70654296875,0.0,-15945.6083984375,0.0,672.0764770507812,0.0,43.795921325683594,0.0,10.340076446533203
1731876168223.0,0.0,0.0,-20.0,0.0,0.0,0.0,0.0,0.0,0.0,0.0,0.0,0.0,0.0,0.0,0.0,0.0,13.284088134765625,0.0,0.0,0.08949239552021027,0.0,3764.70654296875,0.0,-15945.6083984375,0.0,672.0764770507812,0.0,43.795921325683594,0.0,10.340076446533203
1731876168273.0,0.0,0.0,-20.0,0.0,0.0,0.0,0.0,0.0,0.0,0.0,0.0,0.0,0.0,0.0,0.0,0.0,13.483551025390625,0.0,0.0,0.07438146322965622,0.0,3820.19482421875,0.0,-15932.4052734375,0.0,558.5952758789062,0.0,43.75965881347656,0.0,10.492478370666504
1731876168289.0,0.0,0.0,-20.0,0.0,0.0,0.0,0.0,0.0,0.0,0.0,0.0,0.0,0.0,0.0,0.0,0.0,13.56878662109375,0.0,0.0,0.06928986310958862,0.0,3843.892333984375,0.0,-15926.705078125,0.0,520.3580322265625,0.0,43.74400329589844,0.0,10.55756664276123
1731876168306.0,0.0,0.0,-20.0,0.0,0.0,0.0,0.0,0.0,0.0,0.0,0.0,0.0,0.0,0.0,0.0,0.0,13.648162841796875,0.0,0.0,0.06404672563076019,0.0,3865.952880859375,0.0,-15921.3642578125,0.0,480.98272705078125,0.0,43.72933578491211,0.0,10.618157386779785
1731876168323.0,0.0,0.0,-20.0,0.0,0.0,0.0,0.0,0.0,0.0,0.0,0.0,0.0,0.0,0.0,0.0,0.0,13.7215576171875,0.0,0.0,0.0586901493370533,0.0,3886.344970703125,0.0,-15916.400390625,0.0,440.7555236816406,0.0,43.7156982421875,0.0,10.674165725708008
1731876168340.0,0.0,0.0,-20.0,0.0,0.0,0.0,0.0,0.0,0.0,0.0,0.0,0.0,0.0,0.0,0.0,0.0,13.788818359375,0.0,0.0,0.053573817014694214,0.0,3905.027099609375,0.0,-15911.8251953125,0.0,402.33251953125,0.0,43.7031364440918,0.0,10.725476264953613
1731876168389.0,0.0,0.0,-20.0,0.0,0.0,0.0,0.0,0.0,0.0,0.0,0.0,0.0,0.0,0.0,0.0,0.0,13.8995361328125,0.0,0.0,0.038038309663534164,0.0,3935.767822265625,0.0,-15904.25,0.0,285.662841796875,0.0,43.68233108520508,0.0,10.809908866882324
1731876168406.0,0.0,0.0,-20.0,0.0,0.0,0.0,0.0,0.0,0.0,0.0,0.0,0.0,0.0,0.0,0.0,0.0,13.943115234375,0.0,0.0,0.03267994150519371,0.0,3947.863037109375,0.0,-15901.2529296875,0.0,245.42218017578125,0.0,43.674095153808594,0.0,10.843130111694336
1731876168423.0,0.0,0.0,-20.0,0.0,0.0,0.0,0.0,0.0,0.0,0.0,0.0,0.0,0.0,0.0,0.0,0.0,13.980560302734375,0.0,0.0,0.027244621887803078,0.0,3958.25439453125,0.0,-15898.6689453125,0.0,204.6036376953125,0.0,43.66699981689453,0.0,10.871670722961426
1731876168440.0,0.0,0.0,-20.0,0.0,0.0,0.0,0.0,0.0,0.0,0.0,0.0,0.0,0.0,0.0,0.0,0.0,14.01177978515625,0.0,0.0,0.02206197753548622,0.0,3966.9169921875,0.0,-15896.509765625,0.0,165.68263244628906,0.0,43.661067962646484,0.0,10.895462989807129
1731876168473.0,0.0,0.0,-20.0,0.0,0.0,0.0,0.0,0.0,0.0,0.0,0.0,0.0,0.0,0.0,0.0,0.0,14.037078857421875,0.0,0.0,0.011448129080235958,0.0,3973.935546875,0.0,-15894.7578125,0.0,85.97398376464844,0.0,43.656253814697266,0.0,10.914739608764648
1731876168490.0,0.0,0.0,-20.0,0.0,0.0,0.0,0.0,0.0,0.0,0.0,0.0,0.0,0.0,0.0,0.0,0.0,14.050201416015625,0.0,0.0,0.00628081988543272,0.0,3977.576171875,0.0,-15893.8466796875,0.0,47.168155670166016,0.0,43.653751373291016,0.0,10.924738883972168
1731876168524.0,0.0,0.0,-20.0,0.0,0.0,0.0,0.0,0.0,0.0,0.0,0.0,0.0,0.0,0.0,0.0,0.0,14.058319091796875,0.0,0.0,-0.0045026931911706924,0.0,3979.827392578125,0.0,-15893.2822265625,0.0,-33.81465148925781,0.0,43.65220260620117,0.0,10.930922508239746
1731876168524.0,0.0,0.0,-20.0,0.0,0.0,0.0,0.0,0.0,0.0,0.0,0.0,0.0,0.0,0.0,0.0,0.0,14.058319091796875,0.0,0.0,-0.0045026931911706924,0.0,3979.827392578125,0.0,-15893.2822265625,0.0,-33.81465148925781,0.0,43.65220260620117,0.0,10.930922508239746
1731876168573.0,0.0,0.0,-20.0,0.0,0.0,0.0,0.0,0.0,0.0,0.0,0.0,0.0,0.0,0.0,0.0,0.0,14.042205810546875,0.0,0.0,-0.02016196958720684,0.0,3975.35791015625,0.0,-15894.400390625,0.0,-151.413818359375,0.0,43.655277252197266,0.0,10.918645858764648
1731876168590.0,0.0,0.0,-20.0,0.0,0.0,0.0,0.0,0.0,0.0,0.0,0.0,0.0,0.0,0.0,0.0,0.0,14.01910400390625,0.0,0.0,-0.025414492934942245,0.0,3968.948974609375,0.0,-15896.0029296875,0.0,-190.85958862304688,0.0,43.65967559814453,0.0,10.901043891906738
1731876168623.0,0.0,0.0,-20.0,0.0,0.0,0.0,0.0,0.0,0.0,0.0,0.0,0.0,0.0,0.0,0.0,0.0,13.954742431640625,0.0,0.0,-0.035925935953855515,0.0,3951.090087890625,0.0,-15900.4521484375,0.0,-269.7991943359375,0.0,43.67189407348633,0.0,10.8519926071167
1731876168623.0,0.0,0.0,-20.0,0.0,0.0,0.0,0.0,0.0,0.0,0.0,0.0,0.0,0.0,0.0,0.0,0.0,13.954742431640625,0.0,0.0,-0.035925935953855515,0.0,3951.090087890625,0.0,-15900.4521484375,0.0,-269.7991943359375,0.0,43.67189407348633,0.0,10.8519926071167
1731876168640.0,0.0,0.0,-20.0,0.0,0.0,0.0,0.0,0.0,0.0,0.0,0.0,0.0,0.0,0.0,0.0,0.0,13.91357421875,0.0,0.0,-0.04124903678894043,0.0,3939.664306640625,0.0,-15903.287109375,0.0,-309.7749938964844,0.0,43.67967987060547,0.0,10.820611000061035
1731876168690.0,0.0,0.0,-20.0,0.0,0.0,0.0,0.0,0.0,0.0,0.0,0.0,0.0,0.0,0.0,0.0,0.0,13.807098388671875,0.0,0.0,-0.05691298469901085,0.0,3910.103515625,0.0,-15910.580078125,0.0,-427.40924072265625,0.0,43.69971466064453,0.0,10.739419937133789
1731876168707.0,0.0,0.0,-20.0,0.0,0.0,0.0,0.0,0.0,0.0,0.0,0.0,0.0,0.0,0.0,0.0,0.0,13.74188232421875,0.0,0.0,-0.06211411952972412,0.0,3891.990966796875,0.0,-15915.01953125,0.0,-466.4691162109375,0.0,43.71190643310547,0.0,10.689672470092773
1731876168723.0,0.0,0.0,-20.0,0.0,0.0,0.0,0.0,0.0,0.0,0.0,0.0,0.0,0.0,0.0,0.0,0.0,13.670684814453125,0.0,0.0,-0.06733578443527222,0.0,3872.21142578125,0.0,-15919.84375,0.0,-505.6831359863281,0.0,43.72515869140625,0.0,10.635346412658691
1731876168740.0,0.0,0.0,-20.0,0.0,0.0,0.0,0.0,0.0,0.0,0.0,0.0,0.0,0.0,0.0,0.0,0.0,13.593536376953125,0.0,0.0,-0.07262323051691055,0.0,3850.772216796875,0.0,-15925.0439453125,0.0,-545.3911743164062,0.0,43.73944091796875,0.0,10.576461791992188
1731876168790.0,0.0,0.0,-20.0,0.0,0.0,0.0,0.0,0.0,0.0,0.0,0.0,0.0,0.0,0.0,0.0,0.0,13.41534423828125,0.0,0.0,-0.08793368190526962,0.0,3801.226318359375,0.0,-15936.94140625,0.0,-660.3707275390625,0.0,43.77212142944336,0.0,10.44037914276123
1731876168808.0,0.0,0.0,-20.0,0.0,0.0,0.0,0.0,0.0,0.0,0.0,0.0,0.0,0.0,0.0,0.0,0.0,13.314605712890625,0.0,0.0,-0.09319398552179337,0.0,3773.19970703125,0.0,-15943.6015625,0.0,-699.8749389648438,0.0,43.790409088134766,0.0,10.363401412963867
1731876168823.0,0.0,0.0,-20.0,0.0,0.0,0.0,0.0,0.0,0.0,0.0,0.0,0.0,0.0,0.0,0.0,0.0,13.207794189453125,0.0,0.0,-0.09791088849306107,0.0,3743.470703125,0.0,-15950.607421875,0.0,-735.2982788085938,0.0,43.80965042114258,0.0,10.281749725341797
1731876168840.0,0.0,0.0,-20.0,0.0,0.0,0.0,0.0,0.0,0.0,0.0,0.0,0.0,0.0,0.0,0.0,0.0,13.095611572265625,0.0,0.0,-0.10297032445669174,0.0,3712.233154296875,0.0,-15957.90625,0.0,-773.2940063476562,0.0,43.82969665527344,0.0,10.195952415466309
1731876168873.0,0.0,0.0,-20.0,0.0,0.0,0.0,0.0,0.0,0.0,0.0,0.0,0.0,0.0,0.0,0.0,0.0,12.97760009765625,0.0,0.0,-0.11292804032564163,0.0,3679.35693359375,0.0,-15965.51953125,0.0,-848.0751342773438,0.0,43.85060501098633,0.0,10.105655670166016
1731876168907.0,0.0,0.0,-20.0,0.0,0.0,0.0,0.0,0.0,0.0,0.0,0.0,0.0,0.0,0.0,0.0,0.0,12.71319580078125,0.0,0.0,-0.122706338763237,0.0,3605.64111328125,0.0,-15982.3271484375,0.0,-921.5089111328125,0.0,43.89677429199219,0.0,9.903188705444336
1731876168923.0,0.0,0.0,-20.0,0.0,0.0,0.0,0.0,0.0,0.0,0.0,0.0,0.0,0.0,0.0,0.0,0.0,12.572601318359375,0.0,0.0,-0.12760747969150543,0.0,3566.412353515625,0.0,-15991.1279296875,0.0,-958.3158569335938,0.0,43.92094421386719,0.0,9.79544448852539
1731876168923.0,0.0,0.0,-20.0,0.0,0.0,0.0,0.0,0.0,0.0,0.0,0.0,0.0,0.0,0.0,0.0,0.0,12.572601318359375,0.0,0.0,-0.12760747969150543,0.0,3566.412353515625,0.0,-15991.1279296875,0.0,-958.3158569335938,0.0,43.92094421386719,0.0,9.79544448852539
1731876168974.0,0.0,0.0,-20.0,0.0,0.0,0.0,0.0,0.0,0.0,0.0,0.0,0.0,0.0,0.0,0.0,0.0,12.27459716796875,0.0,0.0,-0.14201965928077698,0.0,3483.192138671875,0.0,-16009.4599609375,0.0,-1066.549560546875,0.0,43.97129821777344,0.0,9.566873550415039
1731876168990.0,0.0,0.0,-20.0,0.0,0.0,0.0,0.0,0.0,0.0,0.0,0.0,0.0,0.0,0.0,0.0,0.0,12.11187744140625,0.0,0.0,-0.14670877158641815,0.0,3437.711669921875,0.0,-16019.2880859375,0.0,-1101.76416015625,0.0,43.998287200927734,0.0,9.441957473754883
1731876169023.0,0.0,0.0,-20.0,0.0,0.0,0.0,0.0,0.0,0.0,0.0,0.0,0.0,0.0,0.0,0.0,0.0,11.770263671875,0.0,0.0,-0.1559644341468811,0.0,3342.1396484375,0.0,-16039.5,0.0,-1171.27294921875,0.0,44.053802490234375,0.0,9.179459571838379
1731876169023.0,0.0,0.0,-20.0,0.0,0.0,0.0,0.0,0.0,0.0,0.0,0.0,0.0,0.0,0.0,0.0,0.0,11.770263671875,0.0,0.0,-0.1559644341468811,0.0,3342.1396484375,0.0,-16039.5,0.0,-1171.27294921875,0.0,44.053802490234375,0.0,9.179459571838379
1731876169074.0,0.0,0.0,-20.0,0.0,0.0,0.0,0.0,0.0,0.0,0.0,0.0,0.0,0.0,0.0,0.0,0.0,11.40753173828125,0.0,0.0,-0.16962876915931702,0.0,3240.529052734375,0.0,-16060.3359375,0.0,-1273.890380859375,0.0,44.11103439331055,0.0,8.900379180908203
1731876169090.0,0.0,0.0,-20.0,0.0,0.0,0.0,0.0,0.0,0.0,0.0,0.0,0.0,0.0,0.0,0.0,0.0,11.213165283203125,0.0,0.0,-0.17407943308353424,0.0,3186.02880859375,0.0,-16071.2373046875,0.0,-1307.3143310546875,0.0,44.14097213745117,0.0,8.750689506530762
1731876169107.0,0.0,0.0,-20.0,0.0,0.0,0.0,0.0,0.0,0.0,0.0,0.0,0.0,0.0,0.0,0.0,0.0,11.013671875,0.0,0.0,-0.1784576177597046,0.0,3130.05224609375,0.0,-16082.2333984375,0.0,-1340.1939697265625,0.0,44.171173095703125,0.0,8.596944808959961
1731876169141.0,0.0,0.0,-20.0,0.0,0.0,0.0,0.0,0.0,0.0,0.0,0.0,0.0,0.0,0.0,0.0,0.0,10.599700927734375,0.0,0.0,-0.18716681003570557,0.0,3013.774658203125,0.0,-16104.4287109375,0.0,-1405.598876953125,0.0,44.23213577270508,0.0,8.277579307556152
1731876169141.0,0.0,0.0,-20.0,0.0,0.0,0.0,0.0,0.0,0.0,0.0,0.0,0.0,0.0,0.0,0.0,0.0,10.599700927734375,0.0,0.0,-0.18716681003570557,0.0,3013.774658203125,0.0,-16104.4287109375,0.0,-1405.598876953125,0.0,44.23213577270508,0.0,8.277579307556152
1731876169190.0,0.0,0.0,-20.0,0.0,0.0,0.0,0.0,0.0,0.0,0.0,0.0,0.0,0.0,0.0,0.0,0.0,10.1658935546875,0.0,0.0,-0.19968481361865997,0.0,2891.75732421875,0.0,-16126.78515625,0.0,-1499.607421875,0.0,44.29353713989258,0.0,7.942448616027832
1731876169207.0,0.0,0.0,-20.0,0.0,0.0,0.0,0.0,0.0,0.0,0.0,0.0,0.0,0.0,0.0,0.0,0.0,9.93707275390625,0.0,0.0,-0.2037711888551712,0.0,2827.3291015625,0.0,-16138.205078125,0.0,-1530.295654296875,0.0,44.32490539550781,0.0,7.765491485595703
1731876169240.0,0.0,0.0,-20.0,0.0,0.0,0.0,0.0,0.0,0.0,0.0,0.0,0.0,0.0,0.0,0.0,0.0,9.46539306640625,0.0,0.0,-0.21177245676517487,0.0,2694.379150390625,0.0,-16160.93359375,0.0,-1590.3841552734375,0.0,44.3873291015625,0.0,7.400333404541016
1731876169240.0,0.0,0.0,-20.0,0.0,0.0,0.0,0.0,0.0,0.0,0.0,0.0,0.0,0.0,0.0,0.0,0.0,9.46539306640625,0.0,0.0,-0.21177245676517487,0.0,2694.379150390625,0.0,-16160.93359375,0.0,-1590.3841552734375,0.0,44.3873291015625,0.0,7.400333404541016
1731876169257.0,0.0,0.0,-20.0,0.0,0.0,0.0,0.0,0.0,0.0,0.0,0.0,0.0,0.0,0.0,0.0,0.0,9.22271728515625,0.0,0.0,-0.2156851440668106,0.0,2625.90576171875,0.0,-16172.201171875,0.0,-1619.767822265625,0.0,44.418277740478516,0.0,7.212265491485596
1731876169307.0,0.0,0.0,-20.0,0.0,0.0,0.0,0.0,0.0,0.0,0.0,0.0,0.0,0.0,0.0,0.0,0.0,8.71966552734375,0.0,0.0,-0.22711236774921417,0.0,2483.816162109375,0.0,-16194.6318359375,0.0,-1705.5848388671875,0.0,44.47988510131836,0.0,6.822004795074463
1731876169324.0,0.0,0.0,-20.0,0.0,0.0,0.0,0.0,0.0,0.0,0.0,0.0,0.0,0.0,0.0,0.0,0.0,8.45941162109375,0.0,0.0,-0.23067104816436768,0.0,2410.22998046875,0.0,-16205.748046875,0.0,-1732.31005859375,0.0,44.510414123535156,0.0,6.619894504547119
1731876169340.0,0.0,0.0,-20.0,0.0,0.0,0.0,0.0,0.0,0.0,0.0,0.0,0.0,0.0,0.0,0.0,0.0,8.195098876953125,0.0,0.0,-0.2343127429485321,0.0,2335.4453125,0.0,-16216.693359375,0.0,-1759.6588134765625,0.0,44.54047775268555,0.0,6.414492130279541
1731876169357.0,0.0,0.0,-20.0,0.0,0.0,0.0,0.0,0.0,0.0,0.0,0.0,0.0,0.0,0.0,0.0,0.0,7.92657470703125,0.0,0.0,-0.2378557175397873,0.0,2259.418212890625,0.0,-16227.4619140625,0.0,-1786.26611328125,0.0,44.57005310058594,0.0,6.205677509307861
1731876169390.0,0.0,0.0,-20.0,0.0,0.0,0.0,0.0,0.0,0.0,0.0,0.0,0.0,0.0,0.0,0.0,0.0,7.654022216796875,0.0,0.0,-0.2446671724319458,0.0,2182.199951171875,0.0,-16238.025390625,0.0,-1837.419189453125,0.0,44.59906768798828,0.0,5.99359130859375
1731876169424.0,0.0,0.0,-20.0,0.0,0.0,0.0,0.0,0.0,0.0,0.0,0.0,0.0,0.0,0.0,0.0,0.0,7.089447021484375,0.0,0.0,-0.251275897026062,0.0,2022.0921630859375,0.0,-16258.7392578125,0.0,-1887.0499267578125,0.0,44.65596008300781,0.0,5.553842067718506
1731876169441.0,0.0,0.0,-20.0,0.0,0.0,0.0,0.0,0.0,0.0,0.0,0.0,0.0,0.0,0.0,0.0,0.0,6.801513671875,0.0,0.0,-0.2545304000377655,0.0,1940.3604736328125,0.0,-16268.6953125,0.0,-1911.4908447265625,0.0,44.68330764770508,0.0,5.32935905456543
1731876169457.0,0.0,0.0,-20.0,0.0,0.0,0.0,0.0,0.0,0.0,0.0,0.0,0.0,0.0,0.0,0.0,0.0,6.50982666015625,0.0,0.0,-0.2576153576374054,0.0,1857.513427734375,0.0,-16278.36328125,0.0,-1934.658447265625,0.0,44.709861755371094,0.0,5.101812839508057
1731876169490.0,0.0,0.0,-20.0,0.0,0.0,0.0,0.0,0.0,0.0,0.0,0.0,0.0,0.0,0.0,0.0,0.0,6.214630126953125,0.0,0.0,-0.2636176645755768,0.0,1773.620361328125,0.0,-16287.7177734375,0.0,-1979.7349853515625,0.0,44.73554992675781,0.0,4.87139368057251
1731876169507.0,0.0,0.0,-20.0,0.0,0.0,0.0,0.0,0.0,0.0,0.0,0.0,0.0,0.0,0.0,0.0,0.0,5.91253662109375,0.0,0.0,-0.26654699444770813,0.0,1687.71875,0.0,-16296.8427734375,0.0,-2001.73388671875,0.0,44.76061248779297,0.0,4.635457992553711
1731876169541.0,0.0,0.0,-20.0,0.0,0.0,0.0,0.0,0.0,0.0,0.0,0.0,0.0,0.0,0.0,0.0,0.0,5.29840087890625,0.0,0.0,-0.27215391397476196,0.0,1512.9444580078125,0.0,-16313.99609375,0.0,-2043.8411865234375,0.0,44.8077278137207,0.0,4.155426025390625
1731876169541.0,0.0,0.0,-20.0,0.0,0.0,0.0,0.0,0.0,0.0,0.0,0.0,0.0,0.0,0.0,0.0,0.0,5.29840087890625,0.0,0.0,-0.27215391397476196,0.0,1512.9444580078125,0.0,-16313.99609375,0.0,-2043.8411865234375,0.0,44.8077278137207,0.0,4.155426025390625
1731876169591.0,0.0,0.0,-20.0,0.0,0.0,0.0,0.0,0.0,0.0,0.0,0.0,0.0,0.0,0.0,0.0,0.0,4.671630859375,0.0,0.0,-0.2799609303474426,0.0,1334.3955078125,0.0,-16329.5693359375,0.0,-2102.470947265625,0.0,44.850502014160156,0.0,3.6650266647338867
1731876169607.0,0.0,0.0,-20.0,0.0,0.0,0.0,0.0,0.0,0.0,0.0,0.0,0.0,0.0,0.0,0.0,0.0,4.350830078125,0.0,0.0,-0.28241151571273804,0.0,1242.9451904296875,0.0,-16336.7861328125,0.0,-2120.87451171875,0.0,44.87031936645508,0.0,3.413851022720337
1731876169641.0,0.0,0.0,-20.0,0.0,0.0,0.0,0.0,0.0,0.0,0.0,0.0,0.0,0.0,0.0,0.0,0.0,3.700897216796875,0.0,0.0,-0.2870512306690216,0.0,1057.553466796875,0.0,-16349.833984375,0.0,-2155.718017578125,0.0,44.906158447265625,0.0,2.9046573638916016
1731876169641.0,0.0,0.0,-20.0,0.0,0.0,0.0,0.0,0.0,0.0,0.0,0.0,0.0,0.0,0.0,0.0,0.0,3.700897216796875,0.0,0.0,-0.2870512306690216,0.0,1057.553466796875,0.0,-16349.833984375,0.0,-2155.718017578125,0.0,44.906158447265625,0.0,2.9046573638916016
1731876169657.0,0.0,0.0,-20.0,0.0,0.0,0.0,0.0,0.0,0.0,0.0,0.0,0.0,0.0,0.0,0.0,0.0,3.3719482421875,0.0,0.0,-0.28929245471954346,0.0,963.6681518554688,0.0,-16355.634765625,0.0,-2172.54931640625,0.0,44.92209243774414,0.0,2.6467936038970947
1731876169707.0,0.0,0.0,-20.0,0.0,0.0,0.0,0.0,0.0,0.0,0.0,0.0,0.0,0.0,0.0,0.0,0.0,2.704193115234375,0.0,0.0,-0.2954118847846985,0.0,772.9898681640625,0.0,-16365.7548828125,0.0,-2218.505615234375,0.0,44.94989013671875,0.0,2.123080015182495
1731876169724.0,0.0,0.0,-20.0,0.0,0.0,0.0,0.0,0.0,0.0,0.0,0.0,0.0,0.0,0.0,0.0,0.0,2.36566162109375,0.0,0.0,-0.2973098158836365,0.0,676.2799682617188,0.0,-16370.0380859375,0.0,-2232.7587890625,0.0,44.96165084838867,0.0,1.8574583530426025
1731876169741.0,0.0,0.0,-20.0,0.0,0.0,0.0,0.0,0.0,0.0,0.0,0.0,0.0,0.0,0.0,0.0,0.0,2.02496337890625,0.0,0.0,-0.2991046905517578,0.0,578.9273681640625,0.0,-16373.7685546875,0.0,-2246.238037109375,0.0,44.97189712524414,0.0,1.5900715589523315
1731876169757.0,0.0,0.0,-20.0,0.0,0.0,0.0,0.0,0.0,0.0,0.0,0.0,0.0,0.0,0.0,0.0,0.0,1.682220458984375,0.0,0.0,-0.3008263111114502,0.0,480.96978759765625,0.0,-16376.9375,0.0,-2259.167236328125,0.0,44.98060607910156,0.0,1.3210231065750122
1731876169808.0,0.0,0.0,-20.0,0.0,0.0,0.0,0.0,0.0,0.0,0.0,0.0,0.0,0.0,0.0,0.0,0.0,0.9891357421875,0.0,0.0,-0.3054969012737274,0.0,282.83404541015625,0.0,-16381.55859375,0.0,-2294.24267578125,0.0,44.99329376220703,0.0,0.7768269181251526
1731876169824.0,0.0,0.0,-20.0,0.0,0.0,0.0,0.0,0.0,0.0,0.0,0.0,0.0,0.0,0.0,0.0,0.0,0.639068603515625,0.0,0.0,-0.30688241124153137,0.0,182.7409210205078,0.0,-16382.98046875,0.0,-2304.647705078125,0.0,44.99720001220703,0.0,0.5019129514694214
1731876169841.0,0.0,0.0,-20.0,0.0,0.0,0.0,0.0,0.0,0.0,0.0,0.0,0.0,0.0,0.0,0.0,0.0,0.28741455078125,0.0,0.0,-0.3081706166267395,0.0,82.18721008300781,0.0,-16383.794921875,0.0,-2314.322021484375,0.0,44.99943542480469,0.0,0.2257339209318161
1731876169857.0,0.0,0.0,-20.0,0.0,0.0,0.0,0.0,0.0,0.0,0.0,0.0,0.0,0.0,0.0,0.0,0.0,-0.06573459506034851,0.0,0.0,-0.3093699514865875,0.0,-18.797117233276367,0.0,-16383.9892578125,0.0,-2323.328857421875,0.0,44.999969482421875,0.0,-0.05162782594561577
1731876169891.0,0.0,0.0,-20.0,0.0,0.0,0.0,0.0,0.0,0.0,0.0,0.0,0.0,0.0,0.0,0.0,0.0,-0.4202464520931244,0.0,0.0,-0.3115444779396057,0.0,-120.1703872680664,0.0,-16383.55859375,0.0,-2339.6591796875,0.0,44.9987907409668,0.0,-0.33005785942077637
1731876169924.0,0.0,0.0,-20.0,0.0,0.0,0.0,0.0,0.0,0.0,0.0,0.0,0.0,0.0,0.0,0.0,0.0,-1.1353459358215332,0.0,0.0,-0.31335869431495667,0.0,-324.6363220214844,0.0,-16380.7822265625,0.0,-2353.28369140625,0.0,44.99116516113281,0.0,-0.891640305519104
1731876169941.0,0.0,0.0,-20.0,0.0,0.0,0.0,0.0,0.0,0.0,0.0,0.0,0.0,0.0,0.0,0.0,0.0,-1.4944285154342651,0.0,0.0,-0.31414711475372314,0.0,-427.29046630859375,0.0,-16378.4267578125,0.0,-2359.20458984375,0.0,44.98469161987305,0.0,-1.1735882759094238
1731876169941.0,0.0,0.0,-20.0,0.0,0.0,0.0,0.0,0.0,0.0,0.0,0.0,0.0,0.0,0.0,0.0,0.0,-1.4944285154342651,0.0,0.0,-0.31414711475372314,0.0,-427.29046630859375,0.0,-16378.4267578125,0.0,-2359.20458984375,0.0,44.98469161987305,0.0,-1.1735882759094238
1731876169991.0,0.0,0.0,-20.0,0.0,0.0,0.0,0.0,0.0,0.0,0.0,0.0,0.0,0.0,0.0,0.0,0.0,-2.2151875495910645,0.0,0.0,-0.31594958901405334,0.0,-633.28564453125,0.0,-16371.7568359375,0.0,-2372.740966796875,0.0,44.96636962890625,0.0,-1.7393709421157837
1731876170007.0,0.0,0.0,-20.0,0.0,0.0,0.0,0.0,0.0,0.0,0.0,0.0,0.0,0.0,0.0,0.0,0.0,-2.5772392749786377,0.0,0.0,-0.3163702189922333,0.0,-736.7252807617188,0.0,-16367.427734375,0.0,-2375.89990234375,0.0,44.95448303222656,0.0,-2.0234763622283936
1731876170041.0,0.0,0.0,-20.0,0.0,0.0,0.0,0.0,0.0,0.0,0.0,0.0,0.0,0.0,0.0,0.0,0.0,-3.302701950073242,0.0,0.0,-0.3169667720794678,0.0,-943.900390625,0.0,-16356.7880859375,0.0,-2380.3798828125,0.0,44.92525863647461,0.0,-2.5924997329711914
1731876170041.0,0.0,0.0,-20.0,0.0,0.0,0.0,0.0,0.0,0.0,0.0,0.0,0.0,0.0,0.0,0.0,0.0,-3.302701950073242,0.0,0.0,-0.3169667720794678,0.0,-943.900390625,0.0,-16356.7880859375,0.0,-2380.3798828125,0.0,44.92525863647461,0.0,-2.5924997329711914
1731876170058.0,0.0,0.0,-20.0,0.0,0.0,0.0,0.0,0.0,0.0,0.0,0.0,0.0,0.0,0.0,0.0,0.0,-3.665919303894043,0.0,0.0,-0.3171303868293762,0.0,-1047.572021484375,0.0,-16350.4755859375,0.0,-2381.608642578125,0.0,44.907920837402344,0.0,-2.8772425651550293
1731876170107.0,0.0,0.0,-20.0,0.0,0.0,0.0,0.0,0.0,0.0,0.0,0.0,0.0,0.0,0.0,0.0,0.0,-4.392798900604248,0.0,0.0,-0.31709322333335876,0.0,-1254.9114990234375,0.0,-16335.8701171875,0.0,-2381.32958984375,0.0,44.86780548095703,0.0,-3.4467172622680664
1731876170124.0,0.0,0.0,-20.0,0.0,0.0,0.0,0.0,0.0,0.0,0.0,0.0,0.0,0.0,0.0,0.0,0.0,-4.756161212921143,0.0,0.0,-0.3169007897377014,0.0,-1358.4854736328125,0.0,-16327.5830078125,0.0,-2379.884521484375,0.0,44.84504699707031,0.0,-3.731191873550415
1731876170141.0,0.0,0.0,-20.0,0.0,0.0,0.0,0.0,0.0,0.0,0.0,0.0,0.0,0.0,0.0,0.0,0.0,-5.119302272796631,0.0,0.0,-0.31662267446517944,0.0,-1461.94189453125,0.0,-16318.6455078125,0.0,-2377.7958984375,0.0,44.820499420166016,0.0,-4.015343189239502
1731876170158.0,0.0,0.0,-20.0,0.0,0.0,0.0,0.0,0.0,0.0,0.0,0.0,0.0,0.0,0.0,0.0,0.0,-5.482125282287598,0.0,0.0,-0.31626081466674805,0.0,-1565.2489013671875,0.0,-16309.060546875,0.0,-2375.078369140625,0.0,44.79417419433594,0.0,-4.299084663391113
1731876170191.0,0.0,0.0,-20.0,0.0,0.0,0.0,0.0,0.0,0.0,0.0,0.0,0.0,0.0,0.0,0.0,0.0,-5.844533443450928,0.0,0.0,-0.315261572599411,0.0,-1668.375244140625,0.0,-16298.8330078125,0.0,-2367.57421875,0.0,44.766082763671875,0.0,-4.582329273223877
1731876170224.0,0.0,0.0,-20.0,0.0,0.0,0.0,0.0,0.0,0.0,0.0,0.0,0.0,0.0,0.0,0.0,0.0,-6.566347122192383,0.0,0.0,-0.3139180839061737,0.0,-1873.570556640625,0.0,-16276.5224609375,0.0,-2357.484619140625,0.0,44.704803466796875,0.0,-5.1459150314331055
1731876170241.0,0.0,0.0,-20.0,0.0,0.0,0.0,0.0,0.0,0.0,0.0,0.0,0.0,0.0,0.0,0.0,0.0,-6.926070690155029,0.0,0.0,-0.3131181001663208,0.0,-1975.7227783203125,0.0,-16264.439453125,0.0,-2351.47705078125,0.0,44.67161560058594,0.0,-5.426485061645508
1731876170258.0,0.0,0.0,-20.0,0.0,0.0,0.0,0.0,0.0,0.0,0.0,0.0,0.0,0.0,0.0,0.0,0.0,-7.284878253936768,0.0,0.0,-0.3122215270996094,0.0,-2077.537353515625,0.0,-16251.74609375,0.0,-2344.743896484375,0.0,44.636756896972656,0.0,-5.706126689910889
1731876170291.0,0.0,0.0,-20.0,0.0,0.0,0.0,0.0,0.0,0.0,0.0,0.0,0.0,0.0,0.0,0.0,0.0,-7.642657279968262,0.0,0.0,-0.3101952075958252,0.0,-2178.97900390625,0.0,-16238.4580078125,0.0,-2329.5263671875,0.0,44.600257873535156,0.0,-5.984744548797607
1731876170308.0,0.0,0.0,-20.0,0.0,0.0,0.0,0.0,0.0,0.0,0.0,0.0,0.0,0.0,0.0,0.0,0.0,-7.998115062713623,0.0,0.0,-0.30904456973075867,0.0,-2279.67822265625,0.0,-16224.626953125,0.0,-2320.88525390625,0.0,44.5622673034668,0.0,-6.26132345199585
1731876170341.0,0.0,0.0,-20.0,0.0,0.0,0.0,0.0,0.0,0.0,0.0,0.0,0.0,0.0,0.0,0.0,0.0,-8.704973220825195,0.0,0.0,-0.30647528171539307,0.0,-2479.6630859375,0.0,-16195.2685546875,0.0,-2301.59033203125,0.0,44.481632232666016,0.0,-6.810597896575928
1731876170341.0,0.0,0.0,-20.0,0.0,0.0,0.0,0.0,0.0,0.0,0.0,0.0,0.0,0.0,0.0,0.0,0.0,-8.704973220825195,0.0,0.0,-0.30647528171539307,0.0,-2479.6630859375,0.0,-16195.2685546875,0.0,-2301.59033203125,0.0,44.481632232666016,0.0,-6.810597896575928
1731876170391.0,0.0,0.0,-20.0,0.0,0.0,0.0,0.0,0.0,0.0,0.0,0.0,0.0,0.0,0.0,0.0,0.0,-9.40574836730957,0.0,0.0,-0.301983118057251,0.0,-2677.55419921875,0.0,-16163.728515625,0.0,-2267.854736328125,0.0,44.3950080871582,0.0,-7.354122161865234
1731876170408.0,0.0,0.0,-20.0,0.0,0.0,0.0,0.0,0.0,0.0,0.0,0.0,0.0,0.0,0.0,0.0,0.0,-9.751795768737793,0.0,0.0,-0.30033889412879944,0.0,-2775.128662109375,0.0,-16147.2626953125,0.0,-2255.5068359375,0.0,44.34978485107422,0.0,-7.6221184730529785
1731876170424.0,0.0,0.0,-20.0,0.0,0.0,0.0,0.0,0.0,0.0,0.0,0.0,0.0,0.0,0.0,0.0,0.0,-10.095959663391113,0.0,0.0,-0.2985931932926178,0.0,-2872.0712890625,0.0,-16130.302734375,0.0,-2242.396728515625,0.0,44.303199768066406,0.0,-7.8883795738220215
1731876170441.0,0.0,0.0,-20.0,0.0,0.0,0.0,0.0,0.0,0.0,0.0,0.0,0.0,0.0,0.0,0.0,0.0,-10.438122749328613,0.0,0.0,-0.2967403531074524,0.0,-2968.347412109375,0.0,-16112.8642578125,0.0,-2228.482177734375,0.0,44.25530242919922,0.0,-8.152810096740723
1731876170458.0,0.0,0.0,-20.0,0.0,0.0,0.0,0.0,0.0,0.0,0.0,0.0,0.0,0.0,0.0,0.0,0.0,-10.778160095214844,0.0,0.0,-0.2948276996612549,0.0,-3063.920654296875,0.0,-16094.96484375,0.0,-2214.118408203125,0.0,44.206138610839844,0.0,-8.415308952331543
1731876170508.0,0.0,0.0,-20.0,0.0,0.0,0.0,0.0,0.0,0.0,0.0,0.0,0.0,0.0,0.0,0.0,0.0,-11.44919204711914,0.0,0.0,-0.288595050573349,0.0,-3252.2060546875,0.0,-16057.9755859375,0.0,-2167.31201171875,0.0,44.104549407958984,0.0,-8.932450294494629
1731876170525.0,0.0,0.0,-20.0,0.0,0.0,0.0,0.0,0.0,0.0,0.0,0.0,0.0,0.0,0.0,0.0,0.0,-11.77989673614502,0.0,0.0,-0.2863862216472626,0.0,-3344.836181640625,0.0,-16038.9375,0.0,-2150.723876953125,0.0,44.0522575378418,0.0,-9.186866760253906
1731876170541.0,0.0,0.0,-20.0,0.0,0.0,0.0,0.0,0.0,0.0,0.0,0.0,0.0,0.0,0.0,0.0,0.0,-12.108073234558105,0.0,0.0,-0.2840823829174042,0.0,-3436.648193359375,0.0,-16019.5166015625,0.0,-2133.42236328125,0.0,43.99891662597656,0.0,-9.439035415649414
1731876170558.0,0.0,0.0,-20.0,0.0,0.0,0.0,0.0,0.0,0.0,0.0,0.0,0.0,0.0,0.0,0.0,0.0,-12.433608055114746,0.0,0.0,-0.2816868722438812,0.0,-3527.609130859375,0.0,-15999.7314453125,0.0,-2115.432373046875,0.0,43.944576263427734,0.0,-9.688867568969727
1731876170608.0,0.0,0.0,-20.0,0.0,0.0,0.0,0.0,0.0,0.0,0.0,0.0,0.0,0.0,0.0,0.0,0.0,-13.073423385620117,0.0,0.0,-0.2740127146244049,0.0,-3706.05322265625,0.0,-15959.3427734375,0.0,-2057.800537109375,0.0,43.83364486694336,0.0,-10.17897891998291
1731876170625.0,0.0,0.0,-20.0,0.0,0.0,0.0,0.0,0.0,0.0,0.0,0.0,0.0,0.0,0.0,0.0,0.0,-13.387418746948242,0.0,0.0,-0.27132198214530945,0.0,-3793.458251953125,0.0,-15938.79296875,0.0,-2037.5933837890625,0.0,43.77720260620117,0.0,-10.419044494628906
1731876170641.0,0.0,0.0,-20.0,0.0,0.0,0.0,0.0,0.0,0.0,0.0,0.0,0.0,0.0,0.0,0.0,0.0,-13.698330879211426,0.0,0.0,-0.2685718834400177,0.0,-3879.892333984375,0.0,-15917.9736328125,0.0,-2016.9405517578125,0.0,43.72002029418945,0.0,-10.65644359588623
1731876170658.0,0.0,0.0,-20.0,0.0,0.0,0.0,0.0,0.0,0.0,0.0,0.0,0.0,0.0,0.0,0.0,0.0,-14.006092071533203,0.0,0.0,-0.26567989587783813,0.0,-3965.3388671875,0.0,-15896.9033203125,0.0,-1995.2220458984375,0.0,43.662147521972656,0.0,-10.891128540039062
1731876170692.0,0.0,0.0,-20.0,0.0,0.0,0.0,0.0,0.0,0.0,0.0,0.0,0.0,0.0,0.0,0.0,0.0,-14.310538291931152,0.0,0.0,-0.2597077786922455,0.0,-4049.751708984375,0.0,-15875.609375,0.0,-1950.3721923828125,0.0,43.60366439819336,0.0,-11.12297534942627
1731876170725.0,0.0,0.0,-20.0,0.0,0.0,0.0,0.0,0.0,0.0,0.0,0.0,0.0,0.0,0.0,0.0,0.0,-14.902286529541016,0.0,0.0,-0.2535181939601898,0.0,-4213.49560546875,0.0,-15832.9375,0.0,-1903.8892822265625,0.0,43.4864616394043,0.0,-11.572710990905762
1731876170741.0,0.0,0.0,-20.0,0.0,0.0,0.0,0.0,0.0,0.0,0.0,0.0,0.0,0.0,0.0,0.0,0.0,-15.19279670715332,0.0,0.0,-0.25035977363586426,0.0,-4293.72021484375,0.0,-15811.3701171875,0.0,-1880.169921875,0.0,43.427223205566406,0.0,-11.793054580688477
1731876170741.0,0.0,0.0,-20.0,0.0,0.0,0.0,0.0,0.0,0.0,0.0,0.0,0.0,0.0,0.0,0.0,0.0,-15.19279670715332,0.0,0.0,-0.25035977363586426,0.0,-4293.72021484375,0.0,-15811.3701171875,0.0,-1880.169921875,0.0,43.427223205566406,0.0,-11.793054580688477
1731876170791.0,0.0,0.0,-20.0,0.0,0.0,0.0,0.0,0.0,0.0,0.0,0.0,0.0,0.0,0.0,0.0,0.0,-15.762837409973145,0.0,0.0,-0.2403140515089035,0.0,-4450.8134765625,0.0,-15767.8701171875,0.0,-1804.727783203125,0.0,43.30774688720703,0.0,-12.22452449798584
1731876170808.0,0.0,0.0,-20.0,0.0,0.0,0.0,0.0,0.0,0.0,0.0,0.0,0.0,0.0,0.0,0.0,0.0,-16.038217544555664,0.0,0.0,-0.23679856956005096,0.0,-4526.546875,0.0,-15746.2958984375,0.0,-1778.3270263671875,0.0,43.24849319458008,0.0,-12.43253231048584
1731876170842.0,0.0,0.0,-20.0,0.0,0.0,0.0,0.0,0.0,0.0,0.0,0.0,0.0,0.0,0.0,0.0,0.0,-16.576871871948242,0.0,0.0,-0.22957445681095123,0.0,-4674.3798828125,0.0,-15703.044921875,0.0,-1724.0748291015625,0.0,43.12969970703125,0.0,-12.838567733764648
1731876170842.0,0.0,0.0,-20.0,0.0,0.0,0.0,0.0,0.0,0.0,0.0,0.0,0.0,0.0,0.0,0.0,0.0,-16.576871871948242,0.0,0.0,-0.22957445681095123,0.0,-4674.3798828125,0.0,-15703.044921875,0.0,-1724.0748291015625,0.0,43.12969970703125,0.0,-12.838567733764648
1731876170858.0,0.0,0.0,-20.0,0.0,0.0,0.0,0.0,0.0,0.0,0.0,0.0,0.0,0.0,0.0,0.0,0.0,-16.83994483947754,0.0,0.0,-0.22590887546539307,0.0,-4746.4306640625,0.0,-15681.4169921875,0.0,-1696.5467529296875,0.0,43.07029724121094,0.0,-13.036460876464844
1731876170909.0,0.0,0.0,-20.0,0.0,0.0,0.0,0.0,0.0,0.0,0.0,0.0,0.0,0.0,0.0,0.0,0.0,-17.34905242919922,0.0,0.0,-0.21444997191429138,0.0,-4885.58056640625,0.0,-15638.6240234375,0.0,-1610.491943359375,0.0,42.952762603759766,0.0,-13.418647766113281
1731876170925.0,0.0,0.0,-20.0,0.0,0.0,0.0,0.0,0.0,0.0,0.0,0.0,0.0,0.0,0.0,0.0,0.0,-17.59479331970215,0.0,0.0,-0.21051843464374542,0.0,-4952.609375,0.0,-15617.5263671875,0.0,-1580.966552734375,0.0,42.89481735229492,0.0,-13.602747917175293
1731876170942.0,0.0,0.0,-20.0,0.0,0.0,0.0,0.0,0.0,0.0,0.0,0.0,0.0,0.0,0.0,0.0,0.0,-17.836027145385742,0.0,0.0,-0.20655030012130737,0.0,-5018.3203125,0.0,-15596.53515625,0.0,-1551.1663818359375,0.0,42.837162017822266,0.0,-13.783227920532227
1731876170958.0,0.0,0.0,-20.0,0.0,0.0,0.0,0.0,0.0,0.0,0.0,0.0,0.0,0.0,0.0,0.0,0.0,-18.072721481323242,0.0,0.0,-0.20252522826194763,0.0,-5082.70751953125,0.0,-15575.671875,0.0,-1520.9385986328125,0.0,42.77985763549805,0.0,-13.960073471069336
1731876171009.0,0.0,0.0,-20.0,0.0,0.0,0.0,0.0,0.0,0.0,0.0,0.0,0.0,0.0,0.0,0.0,0.0,-18.52737045288086,0.0,0.0,-0.19001887738704681,0.0,-5206.1416015625,0.0,-15534.8486328125,0.0,-1427.0174560546875,0.0,42.66773986816406,0.0,-14.299095153808594
1731876171025.0,0.0,0.0,-20.0,0.0,0.0,0.0,0.0,0.0,0.0,0.0,0.0,0.0,0.0,0.0,0.0,0.0,-18.7451171875,0.0,0.0,-0.1857290267944336,0.0,-5265.14208984375,0.0,-15514.9521484375,0.0,-1394.80126953125,0.0,42.61309051513672,0.0,-14.46114444732666
1731876171042.0,0.0,0.0,-20.0,0.0,0.0,0.0,0.0,0.0,0.0,0.0,0.0,0.0,0.0,0.0,0.0,0.0,-18.957950592041016,0.0,0.0,-0.18140274286270142,0.0,-5322.73828125,0.0,-15495.2861328125,0.0,-1362.3114013671875,0.0,42.559078216552734,0.0,-14.61933708190918
1731876171059.0,0.0,0.0,-20.0,0.0,0.0,0.0,0.0,0.0,0.0,0.0,0.0,0.0,0.0,0.0,0.0,0.0,-19.16581916809082,0.0,0.0,-0.17703375220298767,0.0,-5378.919921875,0.0,-15475.8740234375,0.0,-1329.5008544921875,0.0,42.50575637817383,0.0,-14.77364444732666
1731876171109.0,0.0,0.0,-20.0,0.0,0.0,0.0,0.0,0.0,0.0,0.0,0.0,0.0,0.0,0.0,0.0,0.0,-19.5614013671875,0.0,0.0,-0.16362743079662323,0.0,-5485.6396484375,0.0,-15438.3671875,0.0,-1228.821044921875,0.0,42.40274429321289,0.0,-15.06675910949707
1731876171126.0,0.0,0.0,-20.0,0.0,0.0,0.0,0.0,0.0,0.0,0.0,0.0,0.0,0.0,0.0,0.0,0.0,-19.7489013671875,0.0,0.0,-0.15909358859062195,0.0,-5536.13232421875,0.0,-15420.333984375,0.0,-1194.7725830078125,0.0,42.35321044921875,0.0,-15.20544147491455
1731876171142.0,0.0,0.0,-20.0,0.0,0.0,0.0,0.0,0.0,0.0,0.0,0.0,0.0,0.0,0.0,0.0,0.0,-19.93121337890625,0.0,0.0,-0.1544651985168457,0.0,-5585.17041015625,0.0,-15402.640625,0.0,-1160.013916015625,0.0,42.30461502075195,0.0,-15.340128898620605
1731876171159.0,0.0,0.0,-20.0,0.0,0.0,0.0,0.0,0.0,0.0,0.0,0.0,0.0,0.0,0.0,0.0,0.0,-20.108213424682617,0.0,0.0,-0.14987005293369293,0.0,-5632.72607421875,0.0,-15385.3125,0.0,-1125.5050048828125,0.0,42.257022857666016,0.0,-15.470744132995605
1731876171192.0,0.0,0.0,-20.0,0.0,0.0,0.0,0.0,0.0,0.0,0.0,0.0,0.0,0.0,0.0,0.0,0.0,-20.279956817626953,0.0,0.0,-0.1404283195734024,0.0,-5678.81787109375,0.0,-15368.359375,0.0,-1054.5987548828125,0.0,42.2104606628418,0.0,-15.597338676452637
1731876171225.0,0.0,0.0,-20.0,0.0,0.0,0.0,0.0,0.0,0.0,0.0,0.0,0.0,0.0,0.0,0.0,0.0,-20.596363067626953,0.0,0.0,-0.13096147775650024,0.0,-5763.60009765625,0.0,-15336.7646484375,0.0,-983.5039672851562,0.0,42.12368392944336,0.0,-15.8302001953125
1731876171242.0,0.0,0.0,-20.0,0.0,0.0,0.0,0.0,0.0,0.0,0.0,0.0,0.0,0.0,0.0,0.0,0.0,-20.74643325805664,0.0,0.0,-0.12603174149990082,0.0,-5803.75048828125,0.0,-15321.6162109375,0.0,-946.4822998046875,0.0,42.08207702636719,0.0,-15.940476417541504
1731876171259.0,0.0,0.0,-20.0,0.0,0.0,0.0,0.0,0.0,0.0,0.0,0.0,0.0,0.0,0.0,0.0,0.0,-20.89085578918457,0.0,0.0,-0.1211818978190422,0.0,-5842.3525390625,0.0,-15306.939453125,0.0,-910.060546875,0.0,42.04176330566406,0.0,-16.04650115966797
1731876171292.0,0.0,0.0,-20.0,0.0,0.0,0.0,0.0,0.0,0.0,0.0,0.0,0.0,0.0,0.0,0.0,0.0,-21.02971839904785,0.0,0.0,-0.11132897436618805,0.0,-5879.43359375,0.0,-15292.734375,0.0,-836.06640625,0.0,42.002750396728516,0.0,-16.148345947265625
1731876171325.0,0.0,0.0,-20.0,0.0,0.0,0.0,0.0,0.0,0.0,0.0,0.0,0.0,0.0,0.0,0.0,0.0,-21.279199600219727,0.0,0.0,-0.10146205127239227,0.0,-5945.96630859375,0.0,-15266.9873046875,0.0,-761.967041015625,0.0,41.932037353515625,0.0,-16.331083297729492
1731876171342.0,0.0,0.0,-20.0,0.0,0.0,0.0,0.0,0.0,0.0,0.0,0.0,0.0,0.0,0.0,0.0,0.0,-21.395463943481445,0.0,0.0,-0.09640342742204666,0.0,-5976.93408203125,0.0,-15254.892578125,0.0,-723.9774169921875,0.0,41.89881134033203,0.0,-16.416139602661133
1731876171342.0,0.0,0.0,-20.0,0.0,0.0,0.0,0.0,0.0,0.0,0.0,0.0,0.0,0.0,0.0,0.0,0.0,-21.395463943481445,0.0,0.0,-0.09640342742204666,0.0,-5976.93408203125,0.0,-15254.892578125,0.0,-723.9774169921875,0.0,41.89881134033203,0.0,-16.416139602661133
1731876171392.0,0.0,0.0,-20.0,0.0,0.0,0.0,0.0,0.0,0.0,0.0,0.0,0.0,0.0,0.0,0.0,0.0,-21.610607147216797,0.0,0.0,-0.08118265122175217,0.0,-6034.1728515625,0.0,-15232.3408203125,0.0,-609.6713256835938,0.0,41.83687210083008,0.0,-16.57335090637207
1731876171409.0,0.0,0.0,-20.0,0.0,0.0,0.0,0.0,0.0,0.0,0.0,0.0,0.0,0.0,0.0,0.0,0.0,-21.703636169433594,0.0,0.0,-0.07610908895730972,0.0,-6058.89697265625,0.0,-15222.5244140625,0.0,-571.5695190429688,0.0,41.80990982055664,0.0,-16.641258239746094
1731876171442.0,0.0,0.0,-20.0,0.0,0.0,0.0,0.0,0.0,0.0,0.0,0.0,0.0,0.0,0.0,0.0,0.0,-21.8721981048584,0.0,0.0,-0.06581588089466095,0.0,-6103.65478515625,0.0,-15204.6328125,0.0,-494.26885986328125,0.0,41.760772705078125,0.0,-16.764188766479492
1731876171442.0,0.0,0.0,-20.0,0.0,0.0,0.0,0.0,0.0,0.0,0.0,0.0,0.0,0.0,0.0,0.0,0.0,-21.8721981048584,0.0,0.0,-0.06581588089466095,0.0,-6103.65478515625,0.0,-15204.6328125,0.0,-494.26885986328125,0.0,41.760772705078125,0.0,-16.764188766479492
1731876171459.0,0.0,0.0,-20.0,0.0,0.0,0.0,0.0,0.0,0.0,0.0,0.0,0.0,0.0,0.0,0.0,0.0,-21.947614669799805,0.0,0.0,-0.06053192541003227,0.0,-6123.6630859375,0.0,-15196.583984375,0.0,-454.5870361328125,0.0,41.73866653442383,0.0,-16.819143295288086
1731876171509.0,0.0,0.0,-20.0,0.0,0.0,0.0,0.0,0.0,0.0,0.0,0.0,0.0,0.0,0.0,0.0,0.0,-22.0744571685791,0.0,0.0,-0.044926274567842484,0.0,-6157.29052734375,0.0,-15182.9921875,0.0,-337.3905944824219,0.0,41.701332092285156,0.0,-16.911502838134766
1731876171526.0,0.0,0.0,-20.0,0.0,0.0,0.0,0.0,0.0,0.0,0.0,0.0,0.0,0.0,0.0,0.0,0.0,-22.12593650817871,0.0,0.0,-0.03966879844665527,0.0,-6170.9296875,0.0,-15177.4541015625,0.0,-297.9076232910156,0.0,41.686119079589844,0.0,-16.948965072631836
1731876171542.0,0.0,0.0,-20.0,0.0,0.0,0.0,0.0,0.0,0.0,0.0,0.0,0.0,0.0,0.0,0.0,0.0,-22.171396255493164,0.0,0.0,-0.03440985083580017,0.0,-6182.9697265625,0.0,-15172.5517578125,0.0,-258.41357421875,0.0,41.67265701293945,0.0,-16.982032775878906
1731876171559.0,0.0,0.0,-20.0,0.0,0.0,0.0,0.0,0.0,0.0,0.0,0.0,0.0,0.0,0.0,0.0,0.0,-22.210826873779297,0.0,0.0,-0.029141314327716827,0.0,-6193.41015625,0.0,-15168.2939453125,0.0,-218.84754943847656,0.0,41.66096496582031,0.0,-17.010709762573242
1731876171592.0,0.0,0.0,-20.0,0.0,0.0,0.0,0.0,0.0,0.0,0.0,0.0,0.0,0.0,0.0,0.0,0.0,-22.24422264099121,0.0,0.0,-0.01861034519970417,0.0,-6202.24951171875,0.0,-15164.681640625,0.0,-139.76132202148438,0.0,41.65104293823242,0.0,-17.03498649597168
1731876171626.0,0.0,0.0,-20.0,0.0,0.0,0.0,0.0,0.0,0.0,0.0,0.0,0.0,0.0,0.0,0.0,0.0,-22.280733108520508,0.0,0.0,-0.007991006597876549,0.0,-6211.912109375,0.0,-15160.724609375,0.0,-60.01144027709961,0.0,41.640174865722656,0.0,-17.061525344848633
1731876171642.0,0.0,0.0,-20.0,0.0,0.0,0.0,0.0,0.0,0.0,0.0,0.0,0.0,0.0,0.0,0.0,0.0,-22.289892196655273,0.0,0.0,-0.002696587471291423,0.0,-6214.3359375,0.0,-15159.732421875,0.0,-20.251028060913086,0.0,41.637447357177734,0.0,-17.06818389892578
1731876171659.0,0.0,0.0,-20.0,0.0,0.0,0.0,0.0,0.0,0.0,0.0,0.0,0.0,0.0,0.0,0.0,0.0,-22.29298210144043,0.0,0.0,0.0025695429649204016,0.0,-6215.1533203125,0.0,-15159.3984375,0.0,19.296939849853516,0.0,41.63652801513672,0.0,-17.0704288482666
1731876171692.0,0.0,0.0,-20.0,0.0,0.0,0.0,0.0,0.0,0.0,0.0,0.0,0.0,0.0,0.0,0.0,0.0,-22.290037155151367,0.0,0.0,0.01312724407762289,0.0,-6214.3740234375,0.0,-15159.716796875,0.0,98.58392333984375,0.0,41.63740539550781,0.0,-17.068288803100586
1731876171726.0,0.0,0.0,-20.0,0.0,0.0,0.0,0.0,0.0,0.0,0.0,0.0,0.0,0.0,0.0,0.0,0.0,-22.253923416137695,0.0,0.0,0.023680048063397408,0.0,-6204.8173828125,0.0,-15163.6298828125,0.0,177.83413696289062,0.0,41.648155212402344,0.0,-17.04203987121582
1731876171742.0,0.0,0.0,-20.0,0.0,0.0,0.0,0.0,0.0,0.0,0.0,0.0,0.0,0.0,0.0,0.0,0.0,-22.22678565979004,0.0,0.0,0.028928041458129883,0.0,-6197.634765625,0.0,-15166.5693359375,0.0,217.2458953857422,0.0,41.65622329711914,0.0,-17.02231216430664
1731876171759.0,0.0,0.0,-20.0,0.0,0.0,0.0,0.0,0.0,0.0,0.0,0.0,0.0,0.0,0.0,0.0,0.0,-22.19363784790039,0.0,0.0,0.03425467759370804,0.0,-6188.859375,0.0,-15170.1513671875,0.0,257.2482604980469,0.0,41.66606140136719,0.0,-16.998210906982422
1731876171793.0,0.0,0.0,-20.0,0.0,0.0,0.0,0.0,0.0,0.0,0.0,0.0,0.0,0.0,0.0,0.0,0.0,-22.154390335083008,0.0,0.0,0.04473341628909111,0.0,-6178.46630859375,0.0,-15174.3857421875,0.0,335.9422302246094,0.0,41.677696228027344,0.0,-16.969663619995117
1731876171826.0,0.0,0.0,-20.0,0.0,0.0,0.0,0.0,0.0,0.0,0.0,0.0,0.0,0.0,0.0,0.0,0.0,-22.04578971862793,0.0,0.0,0.055257897824048996,0.0,-6149.693359375,0.0,-15186.0703125,0.0,414.9797668457031,0.0,41.70978927612305,0.0,-16.890636444091797
1731876171843.0,0.0,0.0,-20.0,0.0,0.0,0.0,0.0,0.0,0.0,0.0,0.0,0.0,0.0,0.0,0.0,0.0,-21.982467651367188,0.0,0.0,0.060435716062784195,0.0,-6132.90625,0.0,-15192.857421875,0.0,453.864501953125,0.0,41.72842788696289,0.0,-16.84453010559082
1731876171843.0,0.0,0.0,-20.0,0.0,0.0,0.0,0.0,0.0,0.0,0.0,0.0,0.0,0.0,0.0,0.0,0.0,-21.982467651367188,0.0,0.0,0.060435716062784195,0.0,-6132.90625,0.0,-15192.857421875,0.0,453.864501953125,0.0,41.72842788696289,0.0,-16.84453010559082
1731876171893.0,0.0,0.0,-20.0,0.0,0.0,0.0,0.0,0.0,0.0,0.0,0.0,0.0,0.0,0.0,0.0,0.0,-21.837966918945312,0.0,0.0,0.07592935115098953,0.0,-6094.5693359375,0.0,-15208.27734375,0.0,570.2197265625,0.0,41.77077865600586,0.0,-16.739234924316406
1731876171909.0,0.0,0.0,-20.0,0.0,0.0,0.0,0.0,0.0,0.0,0.0,0.0,0.0,0.0,0.0,0.0,0.0,-21.750957489013672,0.0,0.0,0.08103175461292267,0.0,-6071.46728515625,0.0,-15217.5146484375,0.0,608.5381469726562,0.0,41.7961540222168,0.0,-16.675783157348633
1731876171943.0,0.0,0.0,-20.0,0.0,0.0,0.0,0.0,0.0,0.0,0.0,0.0,0.0,0.0,0.0,0.0,0.0,-21.55942726135254,0.0,0.0,0.09122378379106522,0.0,-6020.564453125,0.0,-15237.7236328125,0.0,685.0789794921875,0.0,41.851661682128906,0.0,-16.535974502563477
1731876171943.0,0.0,0.0,-20.0,0.0,0.0,0.0,0.0,0.0,0.0,0.0,0.0,0.0,0.0,0.0,0.0,0.0,-21.55942726135254,0.0,0.0,0.09122378379106522,0.0,-6020.564453125,0.0,-15237.7236328125,0.0,685.0789794921875,0.0,41.851661682128906,0.0,-16.535974502563477
1731876171959.0,0.0,0.0,-20.0,0.0,0.0,0.0,0.0,0.0,0.0,0.0,0.0,0.0,0.0,0.0,0.0,0.0,-21.45488739013672,0.0,0.0,0.09625471383333206,0.0,-5992.751953125,0.0,-15248.685546875,0.0,722.860595703125,0.0,41.88176345825195,0.0,-16.459585189819336
1731876172009.0,0.0,0.0,-20.0,0.0,0.0,0.0,0.0,0.0,0.0,0.0,0.0,0.0,0.0,0.0,0.0,0.0,-21.222719192504883,0.0,0.0,0.11127346754074097,0.0,-5930.91357421875,0.0,-15272.8427734375,0.0,835.6495361328125,0.0,41.948116302490234,0.0,-16.28974151611328
1731876172026.0,0.0,0.0,-20.0,0.0,0.0,0.0,0.0,0.0,0.0,0.0,0.0,0.0,0.0,0.0,0.0,0.0,-21.0952091217041,0.0,0.0,0.11616242676973343,0.0,-5896.9091796875,0.0,-15286.00390625,0.0,872.364990234375,0.0,41.9842643737793,0.0,-16.19634437561035
1731876172043.0,0.0,0.0,-20.0,0.0,0.0,0.0,0.0,0.0,0.0,0.0,0.0,0.0,0.0,0.0,0.0,0.0,-20.962095260620117,0.0,0.0,0.12110026925802231,0.0,-5861.38037109375,0.0,-15299.6630859375,0.0,909.4475708007812,0.0,42.02177810668945,0.0,-16.09876251220703
1731876172059.0,0.0,0.0,-20.0,0.0,0.0,0.0,0.0,0.0,0.0,0.0,0.0,0.0,0.0,0.0,0.0,0.0,-20.82332992553711,0.0,0.0,0.1259506791830063,0.0,-5824.30810546875,0.0,-15313.8134765625,0.0,945.87353515625,0.0,42.060646057128906,0.0,-15.996939659118652
1731876172093.0,0.0,0.0,-20.0,0.0,0.0,0.0,0.0,0.0,0.0,0.0,0.0,0.0,0.0,0.0,0.0,0.0,-20.678997039794922,0.0,0.0,0.1355985552072525,0.0,-5785.7138671875,0.0,-15328.4365234375,0.0,1018.3278198242188,0.0,42.100807189941406,0.0,-15.890937805175781
1731876172126.0,0.0,0.0,-20.0,0.0,0.0,0.0,0.0,0.0,0.0,0.0,0.0,0.0,0.0,0.0,0.0,0.0,-20.36282730102539,0.0,0.0,0.14510390162467957,0.0,-5701.0400390625,0.0,-15360.12890625,0.0,1089.7117919921875,0.0,42.18785858154297,0.0,-15.658373832702637
1731876172143.0,0.0,0.0,-20.0,0.0,0.0,0.0,0.0,0.0,0.0,0.0,0.0,0.0,0.0,0.0,0.0,0.0,-20.196550369262695,0.0,0.0,0.14979220926761627,0.0,-5656.4404296875,0.0,-15376.609375,0.0,1124.92041015625,0.0,42.23311996459961,0.0,-15.535877227783203
1731876172159.0,0.0,0.0,-20.0,0.0,0.0,0.0,0.0,0.0,0.0,0.0,0.0,0.0,0.0,0.0,0.0,0.0,-20.024898529052734,0.0,0.0,0.1544134020805359,0.0,-5610.34814453125,0.0,-15393.486328125,0.0,1159.6248779296875,0.0,42.279476165771484,0.0,-15.409281730651855
1731876172193.0,0.0,0.0,-20.0,0.0,0.0,0.0,0.0,0.0,0.0,0.0,0.0,0.0,0.0,0.0,0.0,0.0,-19.84795570373535,0.0,0.0,0.16358493268489838,0.0,-5562.78271484375,0.0,-15410.7412109375,0.0,1228.501953125,0.0,42.32686233520508,0.0,-15.27863883972168
1731876172210.0,0.0,0.0,-20.0,0.0,0.0,0.0,0.0,0.0,0.0,0.0,0.0,0.0,0.0,0.0,0.0,0.0,-19.66050148010254,0.0,0.0,0.16812336444854736,0.0,-5512.33349609375,0.0,-15428.857421875,0.0,1262.5849609375,0.0,42.37662124633789,0.0,-15.14007568359375
1731876172243.0,0.0,0.0,-20.0,0.0,0.0,0.0,0.0,0.0,0.0,0.0,0.0,0.0,0.0,0.0,0.0,0.0,-19.27010154724121,0.0,0.0,0.17698454856872559,0.0,-5407.078125,0.0,-15466.0595703125,0.0,1329.13134765625,0.0,42.478797912597656,0.0,-14.850983619689941
1731876172243.0,0.0,0.0,-20.0,0.0,0.0,0.0,0.0,0.0,0.0,0.0,0.0,0.0,0.0,0.0,0.0,0.0,-19.27010154724121,0.0,0.0,0.17698454856872559,0.0,-5407.078125,0.0,-15466.0595703125,0.0,1329.13134765625,0.0,42.478797912597656,0.0,-14.850983619689941
1731876172293.0,0.0,0.0,-20.0,0.0,0.0,0.0,0.0,0.0,0.0,0.0,0.0,0.0,0.0,0.0,0.0,0.0,-18.85947608947754,0.0,0.0,0.18989387154579163,0.0,-5296.0986328125,0.0,-15504.4130859375,0.0,1426.0787353515625,0.0,42.58414077758789,0.0,-14.54616928100586
1731876172309.0,0.0,0.0,-20.0,0.0,0.0,0.0,0.0,0.0,0.0,0.0,0.0,0.0,0.0,0.0,0.0,0.0,-18.641870498657227,0.0,0.0,0.19411645829677582,0.0,-5237.17578125,0.0,-15524.4150390625,0.0,1457.789794921875,0.0,42.639076232910156,0.0,-14.384332656860352
1731876172326.0,0.0,0.0,-20.0,0.0,0.0,0.0,0.0,0.0,0.0,0.0,0.0,0.0,0.0,0.0,0.0,0.0,-18.419431686401367,0.0,0.0,0.19832254946231842,0.0,-5176.8662109375,0.0,-15544.6298828125,0.0,1489.3770751953125,0.0,42.694602966308594,0.0,-14.218688011169434
1731876172343.0,0.0,0.0,-20.0,0.0,0.0,0.0,0.0,0.0,0.0,0.0,0.0,0.0,0.0,0.0,0.0,0.0,-18.19217300415039,0.0,0.0,0.20238269865512848,0.0,-5115.1689453125,0.0,-15565.041015625,0.0,1519.8681640625,0.0,42.75066375732422,0.0,-14.04923152923584
1731876172359.0,0.0,0.0,-20.0,0.0,0.0,0.0,0.0,0.0,0.0,0.0,0.0,0.0,0.0,0.0,0.0,0.0,-17.96025848388672,0.0,0.0,0.2063876986503601,0.0,-5052.12548828125,0.0,-15585.6181640625,0.0,1549.9453125,0.0,42.80717849731445,0.0,-13.876076698303223
1731876172410.0,0.0,0.0,-20.0,0.0,0.0,0.0,0.0,0.0,0.0,0.0,0.0,0.0,0.0,0.0,0.0,0.0,-17.478113174438477,0.0,0.0,0.21823658049106598,0.0,-4920.794921875,0.0,-15627.580078125,0.0,1638.9288330078125,0.0,42.922428131103516,0.0,-13.515366554260254
1731876172426.0,0.0,0.0,-20.0,0.0,0.0,0.0,0.0,0.0,0.0,0.0,0.0,0.0,0.0,0.0,0.0,0.0,-17.2280330657959,0.0,0.0,0.22204886376857758,0.0,-4852.5380859375,0.0,-15648.908203125,0.0,1667.55859375,0.0,42.98101043701172,0.0,-13.32789421081543
1731876172443.0,0.0,0.0,-20.0,0.0,0.0,0.0,0.0,0.0,0.0,0.0,0.0,0.0,0.0,0.0,0.0,0.0,-16.973583221435547,0.0,0.0,0.22577887773513794,0.0,-4782.99365234375,0.0,-15670.3037109375,0.0,1695.570556640625,0.0,43.03977584838867,0.0,-13.136884689331055
1731876172460.0,0.0,0.0,-20.0,0.0,0.0,0.0,0.0,0.0,0.0,0.0,0.0,0.0,0.0,0.0,0.0,0.0,-16.714859008789062,0.0,0.0,0.22949343919754028,0.0,-4712.1845703125,0.0,-15691.7421875,0.0,1723.4664306640625,0.0,43.098655700683594,0.0,-12.942401885986328
1731876172493.0,0.0,0.0,-20.0,0.0,0.0,0.0,0.0,0.0,0.0,0.0,0.0,0.0,0.0,0.0,0.0,0.0,-16.451879501342773,0.0,0.0,0.23661087453365326,0.0,-4640.1123046875,0.0,-15713.205078125,0.0,1776.91748046875,0.0,43.15760803222656,0.0,-12.7444486618042
1731876172526.0,0.0,0.0,-20.0,0.0,0.0,0.0,0.0,0.0,0.0,0.0,0.0,0.0,0.0,0.0,0.0,0.0,-15.905579566955566,0.0,0.0,0.243574857711792,0.0,-4490.08203125,0.0,-15756.7314453125,0.0,1829.216064453125,0.0,43.277156829833984,0.0,-12.332378387451172
1731876172543.0,0.0,0.0,-20.0,0.0,0.0,0.0,0.0,0.0,0.0,0.0,0.0,0.0,0.0,0.0,0.0,0.0,-15.626460075378418,0.0,0.0,0.24691472947597504,0.0,-4413.26953125,0.0,-15778.4189453125,0.0,1854.298095703125,0.0,43.33672332763672,0.0,-12.121406555175781
1731876172543.0,0.0,0.0,-20.0,0.0,0.0,0.0,0.0,0.0,0.0,0.0,0.0,0.0,0.0,0.0,0.0,0.0,-15.626460075378418,0.0,0.0,0.24691472947597504,0.0,-4413.26953125,0.0,-15778.4189453125,0.0,1854.298095703125,0.0,43.33672332763672,0.0,-12.121406555175781
1731876172593.0,0.0,0.0,-20.0,0.0,0.0,0.0,0.0,0.0,0.0,0.0,0.0,0.0,0.0,0.0,0.0,0.0,-15.056777954101562,0.0,0.0,0.25657936930656433,0.0,-4256.171875,0.0,-15821.51953125,0.0,1926.8782958984375,0.0,43.45509719848633,0.0,-11.689925193786621
1731876172610.0,0.0,0.0,-20.0,0.0,0.0,0.0,0.0,0.0,0.0,0.0,0.0,0.0,0.0,0.0,0.0,0.0,-14.762761116027832,0.0,0.0,0.2596403956413269,0.0,-4174.9267578125,0.0,-15843.15234375,0.0,1949.8662109375,0.0,43.5145149230957,0.0,-11.466778755187988
1731876172643.0,0.0,0.0,-20.0,0.0,0.0,0.0,0.0,0.0,0.0,0.0,0.0,0.0,0.0,0.0,0.0,0.0,-14.164284706115723,0.0,0.0,0.2655786871910095,0.0,-4009.21484375,0.0,-15885.8935546875,0.0,1994.4620361328125,0.0,43.63191223144531,0.0,-11.011636734008789
1731876172643.0,0.0,0.0,-20.0,0.0,0.0,0.0,0.0,0.0,0.0,0.0,0.0,0.0,0.0,0.0,0.0,0.0,-14.164284706115723,0.0,0.0,0.2655786871910095,0.0,-4009.21484375,0.0,-15885.8935546875,0.0,1994.4620361328125,0.0,43.63191223144531,0.0,-11.011636734008789
1731876172693.0,0.0,0.0,-20.0,0.0,0.0,0.0,0.0,0.0,0.0,0.0,0.0,0.0,0.0,0.0,0.0,0.0,-13.552346229553223,0.0,0.0,0.27391940355300903,0.0,-3839.322265625,0.0,-15927.8076171875,0.0,2057.099853515625,0.0,43.74702835083008,0.0,-10.545014381408691
1731876172710.0,0.0,0.0,-20.0,0.0,0.0,0.0,0.0,0.0,0.0,0.0,0.0,0.0,0.0,0.0,0.0,0.0,-13.2384614944458,0.0,0.0,0.27657997608184814,0.0,-3752.007568359375,0.0,-15948.6005859375,0.0,2077.080322265625,0.0,43.804141998291016,0.0,-10.305196762084961
1731876172727.0,0.0,0.0,-20.0,0.0,0.0,0.0,0.0,0.0,0.0,0.0,0.0,0.0,0.0,0.0,0.0,0.0,-12.921523094177246,0.0,0.0,0.27910658717155457,0.0,-3663.72900390625,0.0,-15969.1123046875,0.0,2096.054931640625,0.0,43.860477447509766,0.0,-10.062732696533203
1731876172743.0,0.0,0.0,-20.0,0.0,0.0,0.0,0.0,0.0,0.0,0.0,0.0,0.0,0.0,0.0,0.0,0.0,-12.601691246032715,0.0,0.0,0.2816017270088196,0.0,-3574.53076171875,0.0,-15989.3154296875,0.0,2114.79296875,0.0,43.91596221923828,0.0,-9.817742347717285
1731876172760.0,0.0,0.0,-20.0,0.0,0.0,0.0,0.0,0.0,0.0,0.0,0.0,0.0,0.0,0.0,0.0,0.0,-12.278997421264648,0.0,0.0,0.2839999496936798,0.0,-3484.42138671875,0.0,-16009.1923828125,0.0,2132.803466796875,0.0,43.97056198120117,0.0,-9.570249557495117
1731876172810.0,0.0,0.0,-20.0,0.0,0.0,0.0,0.0,0.0,0.0,0.0,0.0,0.0,0.0,0.0,0.0,0.0,-11.622908592224121,0.0,0.0,0.29069405794143677,0.0,-3300.87744140625,0.0,-16048.0419921875,0.0,2183.0751953125,0.0,44.07726287841797,0.0,-9.066130638122559
1731876172827.0,0.0,0.0,-20.0,0.0,0.0,0.0,0.0,0.0,0.0,0.0,0.0,0.0,0.0,0.0,0.0,0.0,-11.28979778289795,0.0,0.0,0.2927505075931549,0.0,-3207.5205078125,0.0,-16066.9619140625,0.0,2198.518798828125,0.0,44.12923049926758,0.0,-8.809718132019043
1731876172843.0,0.0,0.0,-20.0,0.0,0.0,0.0,0.0,0.0,0.0,0.0,0.0,0.0,0.0,0.0,0.0,0.0,-10.954330444335938,0.0,0.0,0.2947593629360199,0.0,-3113.39404296875,0.0,-16085.466796875,0.0,2213.605224609375,0.0,44.1800537109375,0.0,-8.551192283630371
1731876172860.0,0.0,0.0,-20.0,0.0,0.0,0.0,0.0,0.0,0.0,0.0,0.0,0.0,0.0,0.0,0.0,0.0,-10.616559982299805,0.0,0.0,0.2966748774051666,0.0,-3018.513671875,0.0,-16103.5419921875,0.0,2227.990478515625,0.0,44.229698181152344,0.0,-8.290595054626465
1731876172894.0,0.0,0.0,-20.0,0.0,0.0,0.0,0.0,0.0,0.0,0.0,0.0,0.0,0.0,0.0,0.0,0.0,-10.276597023010254,0.0,0.0,0.30027928948402405,0.0,-2922.910888671875,0.0,-16121.1689453125,0.0,2255.05908203125,0.0,44.27811050415039,0.0,-8.028014183044434
1731876172927.0,0.0,0.0,-20.0,0.0,0.0,0.0,0.0,0.0,0.0,0.0,0.0,0.0,0.0,0.0,0.0,0.0,-9.586509704589844,0.0,0.0,0.30351659655570984,0.0,-2728.53564453125,0.0,-16155.203125,0.0,2279.370849609375,0.0,44.37158966064453,0.0,-7.494146823883057
1731876172944.0,0.0,0.0,-20.0,0.0,0.0,0.0,0.0,0.0,0.0,0.0,0.0,0.0,0.0,0.0,0.0,0.0,-9.2387056350708,0.0,0.0,0.3050053119659424,0.0,-2630.41845703125,0.0,-16171.4677734375,0.0,2290.551025390625,0.0,44.416263580322266,0.0,-7.2246599197387695
1731876172960.0,0.0,0.0,-20.0,0.0,0.0,0.0,0.0,0.0,0.0,0.0,0.0,0.0,0.0,0.0,0.0,0.0,-8.889195442199707,0.0,0.0,0.3064349889755249,0.0,-2531.72265625,0.0,-16187.212890625,0.0,2301.28759765625,0.0,44.45950698852539,0.0,-6.953583717346191
1731876172977.0,0.0,0.0,-20.0,0.0,0.0,0.0,0.0,0.0,0.0,0.0,0.0,0.0,0.0,0.0,0.0,0.0,-8.538045883178711,0.0,0.0,0.30775362253189087,0.0,-2432.468994140625,0.0,-16202.423828125,0.0,2311.1904296875,0.0,44.501285552978516,0.0,-6.680975437164307
1731876173010.0,0.0,0.0,-20.0,0.0,0.0,0.0,0.0,0.0,0.0,0.0,0.0,0.0,0.0,0.0,0.0,0.0,-8.185388565063477,0.0,0.0,0.3101503551006317,0.0,-2332.69677734375,0.0,-16217.08984375,0.0,2329.189453125,0.0,44.54156494140625,0.0,-6.406942844390869
1731876173044.0,0.0,0.0,-20.0,0.0,0.0,0.0,0.0,0.0,0.0,0.0,0.0,0.0,0.0,0.0,0.0,0.0,-7.473371982574463,0.0,0.0,0.31218189001083374,0.0,-2130.99169921875,0.0,-16244.82421875,0.0,2344.446044921875,0.0,44.61774444580078,0.0,-5.852943420410156
1731876173044.0,0.0,0.0,-20.0,0.0,0.0,0.0,0.0,0.0,0.0,0.0,0.0,0.0,0.0,0.0,0.0,0.0,-7.473371982574463,0.0,0.0,0.31218189001083374,0.0,-2130.99169921875,0.0,-16244.82421875,0.0,2344.446044921875,0.0,44.61774444580078,0.0,-5.852943420410156
1731876173060.0,0.0,0.0,-20.0,0.0,0.0,0.0,0.0,0.0,0.0,0.0,0.0,0.0,0.0,0.0,0.0,0.0,-7.115639686584473,0.0,0.0,0.3130837082862854,0.0,-2029.5247802734375,0.0,-16257.8134765625,0.0,2351.21875,0.0,44.653419494628906,0.0,-5.57425594329834
1731876173110.0,0.0,0.0,-20.0,0.0,0.0,0.0,0.0,0.0,0.0,0.0,0.0,0.0,0.0,0.0,0.0,0.0,-6.396358013153076,0.0,0.0,0.31524422764778137,0.0,-1825.2720947265625,0.0,-16282.0087890625,0.0,2367.44384765625,0.0,44.71987533569336,0.0,-5.013259410858154
1731876173127.0,0.0,0.0,-20.0,0.0,0.0,0.0,0.0,0.0,0.0,0.0,0.0,0.0,0.0,0.0,0.0,0.0,-6.0351152420043945,0.0,0.0,0.3157898783683777,0.0,-1722.58056640625,0.0,-16293.1953125,0.0,2371.541748046875,0.0,44.75059509277344,0.0,-4.731208801269531
1731876173160.0,0.0,0.0,-20.0,0.0,0.0,0.0,0.0,0.0,0.0,0.0,0.0,0.0,0.0,0.0,0.0,0.0,-5.310856819152832,0.0,0.0,0.3166131377220154,0.0,-1516.4910888671875,0.0,-16313.6669921875,0.0,2377.72412109375,0.0,44.80682373046875,0.0,-4.165167331695557
1731876173160.0,0.0,0.0,-20.0,0.0,0.0,0.0,0.0,0.0,0.0,0.0,0.0,0.0,0.0,0.0,0.0,0.0,-5.310856819152832,0.0,0.0,0.3166131377220154,0.0,-1516.4910888671875,0.0,-16313.6669921875,0.0,2377.72412109375,0.0,44.80682373046875,0.0,-4.165167331695557
1731876173210.0,0.0,0.0,-20.0,0.0,0.0,0.0,0.0,0.0,0.0,0.0,0.0,0.0,0.0,0.0,0.0,0.0,-4.584909439086914,0.0,0.0,0.31718963384628296,0.0,-1309.6778564453125,0.0,-16331.5712890625,0.0,2382.0537109375,0.0,44.85599899291992,0.0,-3.597137689590454
1731876173227.0,0.0,0.0,-20.0,0.0,0.0,0.0,0.0,0.0,0.0,0.0,0.0,0.0,0.0,0.0,0.0,0.0,-4.221436023712158,0.0,0.0,0.31720611453056335,0.0,-1206.0478515625,0.0,-16339.55078125,0.0,2382.177490234375,0.0,44.8779182434082,0.0,-3.312509298324585
1731876173261.0,0.0,0.0,-20.0,0.0,0.0,0.0,0.0,0.0,0.0,0.0,0.0,0.0,0.0,0.0,0.0,0.0,-3.494536876678467,0.0,0.0,0.3169706165790558,0.0,-998.6599731445312,0.0,-16353.537109375,0.0,2380.408935546875,0.0,44.91632843017578,0.0,-2.742901563644409
1731876173261.0,0.0,0.0,-20.0,0.0,0.0,0.0,0.0,0.0,0.0,0.0,0.0,0.0,0.0,0.0,0.0,0.0,-3.494536876678467,0.0,0.0,0.3169706165790558,0.0,-998.6599731445312,0.0,-16353.537109375,0.0,2380.408935546875,0.0,44.91632843017578,0.0,-2.742901563644409
1731876173277.0,0.0,0.0,-20.0,0.0,0.0,0.0,0.0,0.0,0.0,0.0,0.0,0.0,0.0,0.0,0.0,0.0,-3.131315231323242,0.0,0.0,0.31672215461730957,0.0,-894.9688110351562,0.0,-16359.5380859375,0.0,2378.54296875,0.0,44.93281173706055,0.0,-2.4581053256988525
1731876173327.0,0.0,0.0,-20.0,0.0,0.0,0.0,0.0,0.0,0.0,0.0,0.0,0.0,0.0,0.0,0.0,0.0,-2.4063148498535156,0.0,0.0,0.3154493570327759,0.0,-687.8948974609375,0.0,-16369.5517578125,0.0,2368.984375,0.0,44.96031951904297,0.0,-1.889359712600708
1731876173344.0,0.0,0.0,-20.0,0.0,0.0,0.0,0.0,0.0,0.0,0.0,0.0,0.0,0.0,0.0,0.0,0.0,-2.0448365211486816,0.0,0.0,0.31484466791152954,0.0,-584.6065673828125,0.0,-16373.5654296875,0.0,2364.443359375,0.0,44.971343994140625,0.0,-1.6056698560714722
1731876173361.0,0.0,0.0,-20.0,0.0,0.0,0.0,0.0,0.0,0.0,0.0,0.0,0.0,0.0,0.0,0.0,0.0,-1.6840511560440063,0.0,0.0,0.31416335701942444,0.0,-481.4930725097656,0.0,-16376.923828125,0.0,2359.32666015625,0.0,44.98056411743164,0.0,-1.3224601745605469
1731876173377.0,0.0,0.0,-20.0,0.0,0.0,0.0,0.0,0.0,0.0,0.0,0.0,0.0,0.0,0.0,0.0,0.0,-1.32404625415802,0.0,0.0,0.31339192390441895,0.0,-378.5836181640625,0.0,-16379.625,0.0,2353.533203125,0.0,44.98798370361328,0.0,-1.0398110151290894
1731876173427.0,0.0,0.0,-20.0,0.0,0.0,0.0,0.0,0.0,0.0,0.0,0.0,0.0,0.0,0.0,0.0,0.0,-0.6078966856002808,0.0,0.0,0.31053465604782104,0.0,-173.8276824951172,0.0,-16383.078125,0.0,2332.07568359375,0.0,44.997467041015625,0.0,-0.477431982755661
1731876173444.0,0.0,0.0,-20.0,0.0,0.0,0.0,0.0,0.0,0.0,0.0,0.0,0.0,0.0,0.0,0.0,0.0,-0.2520500719547272,0.0,0.0,0.3094043731689453,0.0,-72.07469177246094,0.0,-16383.8427734375,0.0,2323.58740234375,0.0,44.99956512451172,0.0,-0.1979590505361557
1731876173461.0,0.0,0.0,-20.0,0.0,0.0,0.0,0.0,0.0,0.0,0.0,0.0,0.0,0.0,0.0,0.0,0.0,0.102508544921875,0.0,0.0,0.3082007169723511,0.0,29.31279182434082,0.0,-16383.97265625,0.0,2314.548095703125,0.0,44.99992752075195,0.0,0.08050999045372009
1731876173478.0,0.0,0.0,-20.0,0.0,0.0,0.0,0.0,0.0,0.0,0.0,0.0,0.0,0.0,0.0,0.0,0.0,0.4556884765625,0.0,0.0,0.3068949580192566,0.0,130.30491638183594,0.0,-16383.48046875,0.0,2304.741943359375,0.0,44.99857711791992,0.0,0.3578931391239166
1731876173511.0,0.0,0.0,-20.0,0.0,0.0,0.0,0.0,0.0,0.0,0.0,0.0,0.0,0.0,0.0,0.0,0.0,0.807342529296875,0.0,0.0,0.3040539026260376,0.0,230.85577392578125,0.0,-16382.3740234375,0.0,2283.406005859375,0.0,44.99553298950195,0.0,0.6340643763542175
1731876173544.0,0.0,0.0,-20.0,0.0,0.0,0.0,0.0,0.0,0.0,0.0,0.0,0.0,0.0,0.0,0.0,0.0,1.502410888671875,0.0,0.0,0.30085739493370056,0.0,429.5722961425781,0.0,-16378.3662109375,0.0,2259.400634765625,0.0,44.984527587890625,0.0,1.1798555850982666
1731876173561.0,0.0,0.0,-20.0,0.0,0.0,0.0,0.0,0.0,0.0,0.0,0.0,0.0,0.0,0.0,0.0,0.0,1.84716796875,0.0,0.0,0.2991340756416321,0.0,528.114990234375,0.0,-16375.486328125,0.0,2246.458740234375,0.0,44.97661590576172,0.0,1.45051109790802
1731876173578.0,0.0,0.0,-20.0,0.0,0.0,0.0,0.0,0.0,0.0,0.0,0.0,0.0,0.0,0.0,0.0,0.0,2.18994140625,0.0,0.0,0.29733046889305115,0.0,626.0716552734375,0.0,-16372.033203125,0.0,2232.913818359375,0.0,44.96713638305664,0.0,1.7195571660995483
1731876173611.0,0.0,0.0,-20.0,0.0,0.0,0.0,0.0,0.0,0.0,0.0,0.0,0.0,0.0,0.0,0.0,0.0,2.530670166015625,0.0,0.0,0.2934862971305847,0.0,723.421875,0.0,-16368.021484375,0.0,2204.044677734375,0.0,44.956111907958984,0.0,1.9869375228881836
1731876173644.0,0.0,0.0,-20.0,0.0,0.0,0.0,0.0,0.0,0.0,0.0,0.0,0.0,0.0,0.0,0.0,0.0,3.200927734375,0.0,0.0,0.2893167734146118,0.0,914.8444213867188,0.0,-16358.4375,0.0,2172.73193359375,0.0,44.92979431152344,0.0,2.5126953125
1731876173661.0,0.0,0.0,-20.0,0.0,0.0,0.0,0.0,0.0,0.0,0.0,0.0,0.0,0.0,0.0,0.0,0.0,3.532470703125,0.0,0.0,0.2871052920818329,0.0,1009.487060546875,0.0,-16352.87109375,0.0,2156.1240234375,0.0,44.91450119018555,0.0,2.7726387977600098
1731876173678.0,0.0,0.0,-20.0,0.0,0.0,0.0,0.0,0.0,0.0,0.0,0.0,0.0,0.0,0.0,0.0,0.0,3.861480712890625,0.0,0.0,0.28480949997901917,0.0,1103.373046875,0.0,-16346.8046875,0.0,2138.883056640625,0.0,44.8978385925293,0.0,3.0305047035217285
1731876173711.0,0.0,0.0,-20.0,0.0,0.0,0.0,0.0,0.0,0.0,0.0,0.0,0.0,0.0,0.0,0.0,0.0,4.187835693359375,0.0,0.0,0.2799888253211975,0.0,1196.4654541015625,0.0,-16340.2548828125,0.0,2102.680419921875,0.0,44.879852294921875,0.0,3.2861905097961426
1731876173745.0,0.0,0.0,-20.0,0.0,0.0,0.0,0.0,0.0,0.0,0.0,0.0,0.0,0.0,0.0,0.0,0.0,4.826629638671875,0.0,0.0,0.2748367190361023,0.0,1378.5657958984375,0.0,-16325.900390625,0.0,2063.98876953125,0.0,44.840423583984375,0.0,3.786344051361084
1731876173761.0,0.0,0.0,-20.0,0.0,0.0,0.0,0.0,0.0,0.0,0.0,0.0,0.0,0.0,0.0,0.0,0.0,5.141571044921875,0.0,0.0,0.2721843719482422,0.0,1468.2840576171875,0.0,-16318.0751953125,0.0,2044.06982421875,0.0,44.81893539428711,0.0,4.03276252746582
1731876173778.0,0.0,0.0,-20.0,0.0,0.0,0.0,0.0,0.0,0.0,0.0,0.0,0.0,0.0,0.0,0.0,0.0,5.453460693359375,0.0,0.0,0.2694271504878998,0.0,1557.089599609375,0.0,-16309.8427734375,0.0,2023.363525390625,0.0,44.79631805419922,0.0,4.276674270629883
1731876173811.0,0.0,0.0,-20.0,0.0,0.0,0.0,0.0,0.0,0.0,0.0,0.0,0.0,0.0,0.0,0.0,0.0,5.76220703125,0.0,0.0,0.263688325881958,0.0,1644.9544677734375,0.0,-16301.21484375,0.0,1980.265625,0.0,44.772621154785156,0.0,4.518002510070801
1731876173828.0,0.0,0.0,-20.0,0.0,0.0,0.0,0.0,0.0,0.0,0.0,0.0,0.0,0.0,0.0,0.0,0.0,6.064361572265625,0.0,0.0,0.2607082724571228,0.0,1730.89697265625,0.0,-16292.3125,0.0,1957.8858642578125,0.0,44.748172760009766,0.0,4.754050254821777
1731876173861.0,0.0,0.0,-20.0,0.0,0.0,0.0,0.0,0.0,0.0,0.0,0.0,0.0,0.0,0.0,0.0,0.0,6.65838623046875,0.0,0.0,0.25454267859458923,0.0,1899.71435546875,0.0,-16273.4921875,0.0,1911.5830078125,0.0,44.69647979736328,0.0,5.217721462249756
1731876173861.0,0.0,0.0,-20.0,0.0,0.0,0.0,0.0,0.0,0.0,0.0,0.0,0.0,0.0,0.0,0.0,0.0,6.65838623046875,0.0,0.0,0.25454267859458923,0.0,1899.71435546875,0.0,-16273.4921875,0.0,1911.5830078125,0.0,44.69647979736328,0.0,5.217721462249756
1731876173911.0,0.0,0.0,-20.0,0.0,0.0,0.0,0.0,0.0,0.0,0.0,0.0,0.0,0.0,0.0,0.0,0.0,7.23809814453125,0.0,0.0,0.244723379611969,0.0,2064.267822265625,0.0,-16253.4384765625,0.0,1837.84130859375,0.0,44.64140319824219,0.0,5.669681072235107
1731876173928.0,0.0,0.0,-20.0,0.0,0.0,0.0,0.0,0.0,0.0,0.0,0.0,0.0,0.0,0.0,0.0,0.0,7.518524169921875,0.0,0.0,0.24136433005332947,0.0,2143.792724609375,0.0,-16243.140625,0.0,1812.615234375,0.0,44.61311721801758,0.0,5.8881025314331055
1731876173961.0,0.0,0.0,-20.0,0.0,0.0,0.0,0.0,0.0,0.0,0.0,0.0,0.0,0.0,0.0,0.0,0.0,8.0677490234375,0.0,0.0,0.2343527227640152,0.0,2299.395263671875,0.0,-16221.84375,0.0,1759.958984375,0.0,44.55462646484375,0.0,6.3154778480529785
1731876173961.0,0.0,0.0,-20.0,0.0,0.0,0.0,0.0,0.0,0.0,0.0,0.0,0.0,0.0,0.0,0.0,0.0,8.0677490234375,0.0,0.0,0.2343527227640152,0.0,2299.395263671875,0.0,-16221.84375,0.0,1759.958984375,0.0,44.55462646484375,0.0,6.3154778480529785
1731876174011.0,0.0,0.0,-20.0,0.0,0.0,0.0,0.0,0.0,0.0,0.0,0.0,0.0,0.0,0.0,0.0,0.0,8.60076904296875,0.0,0.0,0.22335748374462128,0.0,2450.204345703125,0.0,-16199.751953125,0.0,1677.38623046875,0.0,44.49394607543945,0.0,6.729687213897705
1731876174028.0,0.0,0.0,-20.0,0.0,0.0,0.0,0.0,0.0,0.0,0.0,0.0,0.0,0.0,0.0,0.0,0.0,8.856719970703125,0.0,0.0,0.219587504863739,0.0,2522.547119140625,0.0,-16188.64453125,0.0,1649.0740966796875,0.0,44.46343994140625,0.0,6.928382396697998
1731876174061.0,0.0,0.0,-20.0,0.0,0.0,0.0,0.0,0.0,0.0,0.0,0.0,0.0,0.0,0.0,0.0,0.0,9.355621337890625,0.0,0.0,0.21183821558952332,0.0,2663.412109375,0.0,-16166.0673828125,0.0,1590.8779296875,0.0,44.40142822265625,0.0,7.315279960632324
1731876174061.0,0.0,0.0,-20.0,0.0,0.0,0.0,0.0,0.0,0.0,0.0,0.0,0.0,0.0,0.0,0.0,0.0,9.355621337890625,0.0,0.0,0.21183821558952332,0.0,2663.412109375,0.0,-16166.0673828125,0.0,1590.8779296875,0.0,44.40142822265625,0.0,7.315279960632324
1731876174111.0,0.0,0.0,-20.0,0.0,0.0,0.0,0.0,0.0,0.0,0.0,0.0,0.0,0.0,0.0,0.0,0.0,9.83660888671875,0.0,0.0,0.1997985541820526,0.0,2799.027587890625,0.0,-16143.1376953125,0.0,1500.461669921875,0.0,44.33845138549805,0.0,7.687758922576904
1731876174128.0,0.0,0.0,-20.0,0.0,0.0,0.0,0.0,0.0,0.0,0.0,0.0,0.0,0.0,0.0,0.0,0.0,10.0655517578125,0.0,0.0,0.19565805792808533,0.0,2863.510009765625,0.0,-16131.82421875,0.0,1469.3670654296875,0.0,44.307376861572266,0.0,7.864865303039551
1731876174145.0,0.0,0.0,-20.0,0.0,0.0,0.0,0.0,0.0,0.0,0.0,0.0,0.0,0.0,0.0,0.0,0.0,10.289764404296875,0.0,0.0,0.19143988192081451,0.0,2926.61572265625,0.0,-16120.4951171875,0.0,1437.6890869140625,0.0,44.27626037597656,0.0,8.038189888000488
1731876174161.0,0.0,0.0,-20.0,0.0,0.0,0.0,0.0,0.0,0.0,0.0,0.0,0.0,0.0,0.0,0.0,0.0,10.509124755859375,0.0,0.0,0.1872146725654602,0.0,2988.312255859375,0.0,-16109.173828125,0.0,1405.958251953125,0.0,44.24516296386719,0.0,8.20764446258545
1731876174178.0,0.0,0.0,-20.0,0.0,0.0,0.0,0.0,0.0,0.0,0.0,0.0,0.0,0.0,0.0,0.0,0.0,10.723663330078125,0.0,0.0,0.1829615831375122,0.0,3048.61083984375,0.0,-16097.8701171875,0.0,1374.01806640625,0.0,44.21411895751953,0.0,8.373259544372559
1731876174228.0,0.0,0.0,-20.0,0.0,0.0,0.0,0.0,0.0,0.0,0.0,0.0,0.0,0.0,0.0,0.0,0.0,11.13299560546875,0.0,0.0,0.16980969905853271,0.0,3163.5380859375,0.0,-16075.6796875,0.0,1275.2491455078125,0.0,44.15317153930664,0.0,8.68891716003418
1731876174245.0,0.0,0.0,-20.0,0.0,0.0,0.0,0.0,0.0,0.0,0.0,0.0,0.0,0.0,0.0,0.0,0.0,11.327606201171875,0.0,0.0,0.1652558147907257,0.0,3218.122802734375,0.0,-16064.841796875,0.0,1241.050048828125,0.0,44.12340545654297,0.0,8.838838577270508
1731876174261.0,0.0,0.0,-20.0,0.0,0.0,0.0,0.0,0.0,0.0,0.0,0.0,0.0,0.0,0.0,0.0,0.0,11.5169677734375,0.0,0.0,0.16073814034461975,0.0,3271.19873046875,0.0,-16054.1181640625,0.0,1207.1229248046875,0.0,44.09395217895508,0.0,8.984615325927734
1731876174278.0,0.0,0.0,-20.0,0.0,0.0,0.0,0.0,0.0,0.0,0.0,0.0,0.0,0.0,0.0,0.0,0.0,11.701141357421875,0.0,0.0,0.15615089237689972,0.0,3322.78662109375,0.0,-16043.51953125,0.0,1172.6732177734375,0.0,44.06484603881836,0.0,9.12630558013916
1731876174311.0,0.0,0.0,-20.0,0.0,0.0,0.0,0.0,0.0,0.0,0.0,0.0,0.0,0.0,0.0,0.0,0.0,11.880096435546875,0.0,0.0,0.14683856070041656,0.0,3372.88037109375,0.0,-16033.0634765625,0.0,1102.7388916015625,0.0,44.03612518310547,0.0,9.26389217376709
1731876174328.0,0.0,0.0,-20.0,0.0,0.0,0.0,0.0,0.0,0.0,0.0,0.0,0.0,0.0,0.0,0.0,0.0,12.04833984375,0.0,0.0,0.14215920865535736,0.0,3419.9453125,0.0,-16023.0908203125,0.0,1067.5975341796875,0.0,44.008731842041016,0.0,9.393159866333008
1731876174361.0,0.0,0.0,-20.0,0.0,0.0,0.0,0.0,0.0,0.0,0.0,0.0,0.0,0.0,0.0,0.0,0.0,12.3687744140625,0.0,0.0,0.13263192772865295,0.0,3509.502197265625,0.0,-16003.7138671875,0.0,996.048828125,0.0,43.95551300048828,0.0,9.639135360717773
1731876174361.0,0.0,0.0,-20.0,0.0,0.0,0.0,0.0,0.0,0.0,0.0,0.0,0.0,0.0,0.0,0.0,0.0,12.3687744140625,0.0,0.0,0.13263192772865295,0.0,3509.502197265625,0.0,-16003.7138671875,0.0,996.048828125,0.0,43.95551300048828,0.0,9.639135360717773
1731876174411.0,0.0,0.0,-20.0,0.0,0.0,0.0,0.0,0.0,0.0,0.0,0.0,0.0,0.0,0.0,0.0,0.0,12.667144775390625,0.0,0.0,0.11804123222827911,0.0,3592.794677734375,0.0,-15985.2197265625,0.0,886.4745483398438,0.0,43.904720306396484,0.0,9.867904663085938
1731876174428.0,0.0,0.0,-20.0,0.0,0.0,0.0,0.0,0.0,0.0,0.0,0.0,0.0,0.0,0.0,0.0,0.0,12.802398681640625,0.0,0.0,0.11310102045536041,0.0,3630.51904296875,0.0,-15976.6953125,0.0,849.3742065429688,0.0,43.88130569458008,0.0,9.971519470214844
1731876174445.0,0.0,0.0,-20.0,0.0,0.0,0.0,0.0,0.0,0.0,0.0,0.0,0.0,0.0,0.0,0.0,0.0,12.9320068359375,0.0,0.0,0.10808367282152176,0.0,3666.65087890625,0.0,-15968.4423828125,0.0,811.694580078125,0.0,43.85863494873047,0.0,10.070757865905762
1731876174462.0,0.0,0.0,-20.0,0.0,0.0,0.0,0.0,0.0,0.0,0.0,0.0,0.0,0.0,0.0,0.0,0.0,13.055877685546875,0.0,0.0,0.10308132320642471,0.0,3701.165283203125,0.0,-15960.478515625,0.0,774.1275634765625,0.0,43.836761474609375,0.0,10.165555000305176
1731876174478.0,0.0,0.0,-20.0,0.0,0.0,0.0,0.0,0.0,0.0,0.0,0.0,0.0,0.0,0.0,0.0,0.0,13.17401123046875,0.0,0.0,0.09809616953134537,0.0,3734.06494140625,0.0,-15952.8125,0.0,736.689697265625,0.0,43.81570816040039,0.0,10.255916595458984
1731876174528.0,0.0,0.0,-20.0,0.0,0.0,0.0,0.0,0.0,0.0,0.0,0.0,0.0,0.0,0.0,0.0,0.0,13.387176513671875,0.0,0.0,0.08291921019554138,0.0,3793.390625,0.0,-15938.810546875,0.0,622.7127075195312,0.0,43.77724838256836,0.0,10.418858528137207
1731876174545.0,0.0,0.0,-20.0,0.0,0.0,0.0,0.0,0.0,0.0,0.0,0.0,0.0,0.0,0.0,0.0,0.0,13.482177734375,0.0,0.0,0.07770292460918427,0.0,3819.8134765625,0.0,-15932.498046875,0.0,583.5390625,0.0,43.75991439819336,0.0,10.491430282592773
1731876174562.0,0.0,0.0,-20.0,0.0,0.0,0.0,0.0,0.0,0.0,0.0,0.0,0.0,0.0,0.0,0.0,0.0,13.57122802734375,0.0,0.0,0.07262440025806427,0.0,3844.5712890625,0.0,-15926.54296875,0.0,545.3999633789062,0.0,43.743553161621094,0.0,10.559430122375488
1731876174578.0,0.0,0.0,-20.0,0.0,0.0,0.0,0.0,0.0,0.0,0.0,0.0,0.0,0.0,0.0,0.0,0.0,13.654449462890625,0.0,0.0,0.06748831272125244,0.0,3867.70068359375,0.0,-15920.94140625,0.0,506.82861328125,0.0,43.72816848754883,0.0,10.622956275939941
1731876174612.0,0.0,0.0,-20.0,0.0,0.0,0.0,0.0,0.0,0.0,0.0,0.0,0.0,0.0,0.0,0.0,0.0,13.731781005859375,0.0,0.0,0.05709510296583176,0.0,3889.18505859375,0.0,-15915.705078125,0.0,428.77691650390625,0.0,43.71379089355469,0.0,10.681965827941895
1731876174645.0,0.0,0.0,-20.0,0.0,0.0,0.0,0.0,0.0,0.0,0.0,0.0,0.0,0.0,0.0,0.0,0.0,13.85662841796875,0.0,0.0,0.046580687165260315,0.0,3923.855712890625,0.0,-15907.193359375,0.0,349.81500244140625,0.0,43.69041061401367,0.0,10.777192115783691
1731876174662.0,0.0,0.0,-20.0,0.0,0.0,0.0,0.0,0.0,0.0,0.0,0.0,0.0,0.0,0.0,0.0,0.0,13.910003662109375,0.0,0.0,0.041432589292526245,0.0,3938.6728515625,0.0,-15903.5302734375,0.0,311.1534423828125,0.0,43.68035125732422,0.0,10.817889213562012
1731876174678.0,0.0,0.0,-20.0,0.0,0.0,0.0,0.0,0.0,0.0,0.0,0.0,0.0,0.0,0.0,0.0,0.0,13.957489013671875,0.0,0.0,0.03613872081041336,0.0,3951.852294921875,0.0,-15900.26171875,0.0,271.3971862792969,0.0,43.67137145996094,0.0,10.854086875915527
1731876174711.0,0.0,0.0,-20.0,0.0,0.0,0.0,0.0,0.0,0.0,0.0,0.0,0.0,0.0,0.0,0.0,0.0,13.9989013671875,0.0,0.0,0.025724459439516068,0.0,3963.343505859375,0.0,-15897.4013671875,0.0,193.18740844726562,0.0,43.663516998291016,0.0,10.885648727416992
1731876174728.0,0.0,0.0,-20.0,0.0,0.0,0.0,0.0,0.0,0.0,0.0,0.0,0.0,0.0,0.0,0.0,0.0,14.02838134765625,0.0,0.0,0.020375706255435944,0.0,3971.5224609375,0.0,-15895.359375,0.0,153.01895141601562,0.0,43.65790939331055,0.0,10.908112525939941
1731876174762.0,0.0,0.0,-20.0,0.0,0.0,0.0,0.0,0.0,0.0,0.0,0.0,0.0,0.0,0.0,0.0,0.0,14.069000244140625,0.0,0.0,0.009826748631894588,0.0,3982.79052734375,0.0,-15892.5400390625,0.0,73.7976303100586,0.0,43.65016555786133,0.0,10.939061164855957
1731876174762.0,0.0,0.0,-20.0,0.0,0.0,0.0,0.0,0.0,0.0,0.0,0.0,0.0,0.0,0.0,0.0,0.0,14.069000244140625,0.0,0.0,0.009826748631894588,0.0,3982.79052734375,0.0,-15892.5400390625,0.0,73.7976303100586,0.0,43.65016555786133,0.0,10.939061164855957
1731876174812.0,0.0,0.0,-20.0,0.0,0.0,0.0,0.0,0.0,0.0,0.0,0.0,0.0,0.0,0.0,0.0,0.0,14.08551025390625,0.0,0.0,-0.005998935550451279,0.0,3987.3701171875,0.0,-15891.3916015625,0.0,-45.051239013671875,0.0,43.647010803222656,0.0,10.951639175415039
1731876174828.0,0.0,0.0,-20.0,0.0,0.0,0.0,0.0,0.0,0.0,0.0,0.0,0.0,0.0,0.0,0.0,0.0,14.07861328125,0.0,0.0,-0.011359860189259052,0.0,3985.456787109375,0.0,-15891.87109375,0.0,-85.31109619140625,0.0,43.64833068847656,0.0,10.94638442993164
1731876174845.0,0.0,0.0,-20.0,0.0,0.0,0.0,0.0,0.0,0.0,0.0,0.0,0.0,0.0,0.0,0.0,0.0,14.06561279296875,0.0,0.0,-0.016717536374926567,0.0,3981.8505859375,0.0,-15892.7763671875,0.0,-125.54656219482422,0.0,43.65081024169922,0.0,10.936479568481445
1731876174862.0,0.0,0.0,-20.0,0.0,0.0,0.0,0.0,0.0,0.0,0.0,0.0,0.0,0.0,0.0,0.0,0.0,14.04644775390625,0.0,0.0,-0.02193523570895195,0.0,3976.534912109375,0.0,-15894.1064453125,0.0,-164.73081970214844,0.0,43.65446853637695,0.0,10.921878814697266
1731876174879.0,0.0,0.0,-20.0,0.0,0.0,0.0,0.0,0.0,0.0,0.0,0.0,0.0,0.0,0.0,0.0,0.0,14.021331787109375,0.0,0.0,-0.02725306898355484,0.0,3969.56640625,0.0,-15895.8486328125,0.0,-204.6670684814453,0.0,43.65925216674805,0.0,10.902740478515625
1731876174929.0,0.0,0.0,-20.0,0.0,0.0,0.0,0.0,0.0,0.0,0.0,0.0,0.0,0.0,0.0,0.0,0.0,13.946807861328125,0.0,0.0,-0.04303924739360809,0.0,3948.88818359375,0.0,-15900.998046875,0.0,-323.21923828125,0.0,43.673397064208984,0.0,10.84594440460205
1731876174945.0,0.0,0.0,-20.0,0.0,0.0,0.0,0.0,0.0,0.0,0.0,0.0,0.0,0.0,0.0,0.0,0.0,13.897491455078125,0.0,0.0,-0.04825057089328766,0.0,3935.199951171875,0.0,-15904.392578125,0.0,-362.3556213378906,0.0,43.682716369628906,0.0,10.808349609375
1731876174962.0,0.0,0.0,-20.0,0.0,0.0,0.0,0.0,0.0,0.0,0.0,0.0,0.0,0.0,0.0,0.0,0.0,13.84222412109375,0.0,0.0,-0.05348676070570946,0.0,3919.856689453125,0.0,-15908.1796875,0.0,-401.6787414550781,0.0,43.693119049072266,0.0,10.76620864868164
1731876174979.0,0.0,0.0,-20.0,0.0,0.0,0.0,0.0,0.0,0.0,0.0,0.0,0.0,0.0,0.0,0.0,0.0,13.780914306640625,0.0,0.0,-0.058727018535137177,0.0,3902.832275390625,0.0,-15912.365234375,0.0,-441.03240966796875,0.0,43.70461654663086,0.0,10.71944808959961
1731876175029.0,0.0,0.0,-20.0,0.0,0.0,0.0,0.0,0.0,0.0,0.0,0.0,0.0,0.0,0.0,0.0,0.0,13.63446044921875,0.0,0.0,-0.07420147955417633,0.0,3862.145751953125,0.0,-15922.2880859375,0.0,-557.24365234375,0.0,43.73187255859375,0.0,10.60770034790039
1731876175045.0,0.0,0.0,-20.0,0.0,0.0,0.0,0.0,0.0,0.0,0.0,0.0,0.0,0.0,0.0,0.0,0.0,13.5494384765625,0.0,0.0,-0.07931111007928848,0.0,3838.513916015625,0.0,-15928.0029296875,0.0,-595.6163330078125,0.0,43.74756622314453,0.0,10.542794227600098
1731876175062.0,0.0,0.0,-20.0,0.0,0.0,0.0,0.0,0.0,0.0,0.0,0.0,0.0,0.0,0.0,0.0,0.0,13.45855712890625,0.0,0.0,-0.08449217677116394,0.0,3813.244873046875,0.0,-15934.0712890625,0.0,-634.5254516601562,0.0,43.76423263549805,0.0,10.473389625549316
1731876175079.0,0.0,0.0,-20.0,0.0,0.0,0.0,0.0,0.0,0.0,0.0,0.0,0.0,0.0,0.0,0.0,0.0,13.361724853515625,0.0,0.0,-0.0895562544465065,0.0,3786.3095703125,0.0,-15940.494140625,0.0,-672.5560302734375,0.0,43.7818717956543,0.0,10.399410247802734
1731876175129.0,0.0,0.0,-20.0,0.0,0.0,0.0,0.0,0.0,0.0,0.0,0.0,0.0,0.0,0.0,0.0,0.0,13.1448974609375,0.0,0.0,-0.10464964061975479,0.0,3725.958740234375,0.0,-15954.7080078125,0.0,-785.9054565429688,0.0,43.8209114074707,0.0,10.233650207519531
1731876175146.0,0.0,0.0,-20.0,0.0,0.0,0.0,0.0,0.0,0.0,0.0,0.0,0.0,0.0,0.0,0.0,0.0,13.024993896484375,0.0,0.0,-0.10972443222999573,0.0,3692.56201171875,0.0,-15962.46875,0.0,-824.0164794921875,0.0,43.84223175048828,0.0,10.141924858093262
1731876175162.0,0.0,0.0,-20.0,0.0,0.0,0.0,0.0,0.0,0.0,0.0,0.0,0.0,0.0,0.0,0.0,0.0,12.899261474609375,0.0,0.0,-0.1146501898765564,0.0,3657.524169921875,0.0,-15970.53515625,0.0,-861.00830078125,0.0,43.864383697509766,0.0,10.045690536499023
1731876175179.0,0.0,0.0,-20.0,0.0,0.0,0.0,0.0,0.0,0.0,0.0,0.0,0.0,0.0,0.0,0.0,0.0,12.76788330078125,0.0,0.0,-0.11949055641889572,0.0,3620.89404296875,0.0,-15978.87890625,0.0,-897.3588256835938,0.0,43.88730239868164,0.0,9.945083618164062
1731876175229.0,0.0,0.0,-20.0,0.0,0.0,0.0,0.0,0.0,0.0,0.0,0.0,0.0,0.0,0.0,0.0,0.0,12.482818603515625,0.0,0.0,-0.1340501308441162,0.0,3541.349853515625,0.0,-15996.6962890625,0.0,-1006.6993408203125,0.0,43.93623733520508,0.0,9.726608276367188
1731876175246.0,0.0,0.0,-20.0,0.0,0.0,0.0,0.0,0.0,0.0,0.0,0.0,0.0,0.0,0.0,0.0,0.0,12.3292236328125,0.0,0.0,-0.1389174461364746,0.0,3498.45458984375,0.0,-16006.1328125,0.0,-1043.2523193359375,0.0,43.962158203125,0.0,9.608792304992676
1731876175262.0,0.0,0.0,-20.0,0.0,0.0,0.0,0.0,0.0,0.0,0.0,0.0,0.0,0.0,0.0,0.0,0.0,12.1700439453125,0.0,0.0,-0.14358064532279968,0.0,3453.97265625,0.0,-16015.7900390625,0.0,-1078.2723388671875,0.0,43.98868179321289,0.0,9.486618995666504
1731876175279.0,0.0,0.0,-20.0,0.0,0.0,0.0,0.0,0.0,0.0,0.0,0.0,0.0,0.0,0.0,0.0,0.0,12.0054931640625,0.0,0.0,-0.14819656312465668,0.0,3407.961669921875,0.0,-16025.642578125,0.0,-1112.937255859375,0.0,44.015743255615234,0.0,9.360246658325195
1731876175312.0,0.0,0.0,-20.0,0.0,0.0,0.0,0.0,0.0,0.0,0.0,0.0,0.0,0.0,0.0,0.0,0.0,11.835693359375,0.0,0.0,-0.15753471851348877,0.0,3360.453857421875,0.0,-16035.6728515625,0.0,-1183.065673828125,0.0,44.04328918457031,0.0,9.229762077331543
1731876175346.0,0.0,0.0,-20.0,0.0,0.0,0.0,0.0,0.0,0.0,0.0,0.0,0.0,0.0,0.0,0.0,0.0,11.469390869140625,0.0,0.0,-0.1666126549243927,0.0,3257.86669921875,0.0,-16056.8291015625,0.0,-1251.23974609375,0.0,44.10139846801758,0.0,8.947998046875
1731876175362.0,0.0,0.0,-20.0,0.0,0.0,0.0,0.0,0.0,0.0,0.0,0.0,0.0,0.0,0.0,0.0,0.0,11.278472900390625,0.0,0.0,-0.17107076942920685,0.0,3204.34521484375,0.0,-16067.595703125,0.0,-1284.7196044921875,0.0,44.1309700012207,0.0,8.800996780395508
1731876175379.0,0.0,0.0,-20.0,0.0,0.0,0.0,0.0,0.0,0.0,0.0,0.0,0.0,0.0,0.0,0.0,0.0,11.082427978515625,0.0,0.0,-0.17556236684322357,0.0,3149.34912109375,0.0,-16078.46484375,0.0,-1318.450927734375,0.0,44.160823822021484,0.0,8.649945259094238
1731876175412.0,0.0,0.0,-20.0,0.0,0.0,0.0,0.0,0.0,0.0,0.0,0.0,0.0,0.0,0.0,0.0,0.0,10.881256103515625,0.0,0.0,-0.18421253561973572,0.0,3092.87646484375,0.0,-16089.423828125,0.0,-1383.41259765625,0.0,44.190921783447266,0.0,8.49483871459961
1731876175429.0,0.0,0.0,-20.0,0.0,0.0,0.0,0.0,0.0,0.0,0.0,0.0,0.0,0.0,0.0,0.0,0.0,10.670166015625,0.0,0.0,-0.18849751353263855,0.0,3033.578857421875,0.0,-16100.7099609375,0.0,-1415.59228515625,0.0,44.221920013427734,0.0,8.3319730758667
1731876175462.0,0.0,0.0,-20.0,0.0,0.0,0.0,0.0,0.0,0.0,0.0,0.0,0.0,0.0,0.0,0.0,0.0,10.2332763671875,0.0,0.0,-0.19693906605243683,0.0,2910.72119140625,0.0,-16123.373046875,0.0,-1478.9871826171875,0.0,44.2841682434082,0.0,7.994534492492676
1731876175462.0,0.0,0.0,-20.0,0.0,0.0,0.0,0.0,0.0,0.0,0.0,0.0,0.0,0.0,0.0,0.0,0.0,10.2332763671875,0.0,0.0,-0.19693906605243683,0.0,2910.72119140625,0.0,-16123.373046875,0.0,-1478.9871826171875,0.0,44.2841682434082,0.0,7.994534492492676
1731876175512.0,0.0,0.0,-20.0,0.0,0.0,0.0,0.0,0.0,0.0,0.0,0.0,0.0,0.0,0.0,0.0,0.0,9.7772216796875,0.0,0.0,-0.20907476544380188,0.0,2782.293701171875,0.0,-16146.0302734375,0.0,-1570.124755859375,0.0,44.346397399902344,0.0,7.64179801940918
1731876175529.0,0.0,0.0,-20.0,0.0,0.0,0.0,0.0,0.0,0.0,0.0,0.0,0.0,0.0,0.0,0.0,0.0,9.537628173828125,0.0,0.0,-0.21309944987297058,0.0,2714.751708984375,0.0,-16157.5234375,0.0,-1600.349609375,0.0,44.37796401977539,0.0,7.4562883377075195
1731876175546.0,0.0,0.0,-20.0,0.0,0.0,0.0,0.0,0.0,0.0,0.0,0.0,0.0,0.0,0.0,0.0,0.0,9.293426513671875,0.0,0.0,-0.21694253385066986,0.0,2645.862060546875,0.0,-16168.947265625,0.0,-1629.210693359375,0.0,44.409339904785156,0.0,7.2670769691467285
1731876175562.0,0.0,0.0,-20.0,0.0,0.0,0.0,0.0,0.0,0.0,0.0,0.0,0.0,0.0,0.0,0.0,0.0,9.044830322265625,0.0,0.0,-0.2207545042037964,0.0,2575.68310546875,0.0,-16180.2763671875,0.0,-1657.838134765625,0.0,44.440452575683594,0.0,7.074325084686279
1731876175579.0,0.0,0.0,-20.0,0.0,0.0,0.0,0.0,0.0,0.0,0.0,0.0,0.0,0.0,0.0,0.0,0.0,8.7918701171875,0.0,0.0,-0.22455352544784546,0.0,2504.22265625,0.0,-16191.4892578125,0.0,-1686.3682861328125,0.0,44.47125244140625,0.0,6.878052711486816
1731876175629.0,0.0,0.0,-20.0,0.0,0.0,0.0,0.0,0.0,0.0,0.0,0.0,0.0,0.0,0.0,0.0,0.0,8.268890380859375,0.0,0.0,-0.23546810448169708,0.0,2356.3291015625,0.0,-16213.671875,0.0,-1768.33544921875,0.0,44.53218078613281,0.0,6.471851348876953
1731876175646.0,0.0,0.0,-20.0,0.0,0.0,0.0,0.0,0.0,0.0,0.0,0.0,0.0,0.0,0.0,0.0,0.0,7.999053955078125,0.0,0.0,-0.23898324370384216,0.0,2279.944091796875,0.0,-16224.58984375,0.0,-1794.733642578125,0.0,44.56216812133789,0.0,6.262053489685059
1731876175662.0,0.0,0.0,-20.0,0.0,0.0,0.0,0.0,0.0,0.0,0.0,0.0,0.0,0.0,0.0,0.0,0.0,7.7252197265625,0.0,0.0,-0.24241305887699127,0.0,2202.37646484375,0.0,-16235.3017578125,0.0,-1820.4910888671875,0.0,44.59158706665039,0.0,6.049007415771484
1731876175679.0,0.0,0.0,-20.0,0.0,0.0,0.0,0.0,0.0,0.0,0.0,0.0,0.0,0.0,0.0,0.0,0.0,7.447418212890625,0.0,0.0,-0.24580053985118866,0.0,2123.633056640625,0.0,-16245.7880859375,0.0,-1845.9306640625,0.0,44.62038803100586,0.0,5.832732200622559
1731876175729.0,0.0,0.0,-20.0,0.0,0.0,0.0,0.0,0.0,0.0,0.0,0.0,0.0,0.0,0.0,0.0,0.0,6.8765869140625,0.0,0.0,-0.25551241636276245,0.0,1961.67529296875,0.0,-16266.140625,0.0,-1918.8656005859375,0.0,44.67628860473633,0.0,5.38790225982666
1731876175746.0,0.0,0.0,-20.0,0.0,0.0,0.0,0.0,0.0,0.0,0.0,0.0,0.0,0.0,0.0,0.0,0.0,6.58380126953125,0.0,0.0,-0.2586538791656494,0.0,1878.5289306640625,0.0,-16275.9521484375,0.0,-1942.4576416015625,0.0,44.7032356262207,0.0,5.159533977508545
1731876175763.0,0.0,0.0,-20.0,0.0,0.0,0.0,0.0,0.0,0.0,0.0,0.0,0.0,0.0,0.0,0.0,0.0,6.28741455078125,0.0,0.0,-0.26164478063583374,0.0,1794.3099365234375,0.0,-16285.451171875,0.0,-1964.9188232421875,0.0,44.72932815551758,0.0,4.928219318389893
1731876175779.0,0.0,0.0,-20.0,0.0,0.0,0.0,0.0,0.0,0.0,0.0,0.0,0.0,0.0,0.0,0.0,0.0,5.987579345703125,0.0,0.0,-0.26460734009742737,0.0,1709.0618896484375,0.0,-16294.6171875,0.0,-1987.1673583984375,0.0,44.75450134277344,0.0,4.6940789222717285
1731876175812.0,0.0,0.0,-20.0,0.0,0.0,0.0,0.0,0.0,0.0,0.0,0.0,0.0,0.0,0.0,0.0,0.0,5.684356689453125,0.0,0.0,-0.27028435468673706,0.0,1622.8035888671875,0.0,-16303.4345703125,0.0,-2029.801025390625,0.0,44.77872085571289,0.0,4.457163333892822
1731876175846.0,0.0,0.0,-20.0,0.0,0.0,0.0,0.0,0.0,0.0,0.0,0.0,0.0,0.0,0.0,0.0,0.0,5.061798095703125,0.0,0.0,-0.27567610144615173,0.0,1445.5631103515625,0.0,-16320.1044921875,0.0,-2070.292236328125,0.0,44.82450485229492,0.0,3.970357656478882
1731876175863.0,0.0,0.0,-20.0,0.0,0.0,0.0,0.0,0.0,0.0,0.0,0.0,0.0,0.0,0.0,0.0,0.0,4.745880126953125,0.0,0.0,-0.27826178073883057,0.0,1355.5556640625,0.0,-16327.826171875,0.0,-2089.71044921875,0.0,44.84571838378906,0.0,3.723144769668579
1731876175879.0,0.0,0.0,-20.0,0.0,0.0,0.0,0.0,0.0,0.0,0.0,0.0,0.0,0.0,0.0,0.0,0.0,4.427032470703125,0.0,0.0,-0.28079214692115784,0.0,1264.6717529296875,0.0,-16335.1162109375,0.0,-2108.713134765625,0.0,44.86573791503906,0.0,3.473524808883667
1731876175913.0,0.0,0.0,-20.0,0.0,0.0,0.0,0.0,0.0,0.0,0.0,0.0,0.0,0.0,0.0,0.0,0.0,4.105255126953125,0.0,0.0,-0.28556594252586365,0.0,1172.9130859375,0.0,-16341.9619140625,0.0,-2144.563720703125,0.0,44.88454055786133,0.0,3.2215020656585693
1731876175946.0,0.0,0.0,-20.0,0.0,0.0,0.0,0.0,0.0,0.0,0.0,0.0,0.0,0.0,0.0,0.0,0.0,3.448211669921875,0.0,0.0,-0.2900051772594452,0.0,985.4374389648438,0.0,-16354.337890625,0.0,-2177.90185546875,0.0,44.91852951049805,0.0,2.7065846920013428
1731876175963.0,0.0,0.0,-20.0,0.0,0.0,0.0,0.0,0.0,0.0,0.0,0.0,0.0,0.0,0.0,0.0,0.0,3.115875244140625,0.0,0.0,-0.2921215295791626,0.0,890.5602416992188,0.0,-16359.779296875,0.0,-2193.79541015625,0.0,44.9334716796875,0.0,2.4459967613220215
1731876175963.0,0.0,0.0,-20.0,0.0,0.0,0.0,0.0,0.0,0.0,0.0,0.0,0.0,0.0,0.0,0.0,0.0,3.115875244140625,0.0,0.0,-0.2921215295791626,0.0,890.5602416992188,0.0,-16359.779296875,0.0,-2193.79541015625,0.0,44.9334716796875,0.0,2.4459967613220215
1731876176013.0,0.0,0.0,-20.0,0.0,0.0,0.0,0.0,0.0,0.0,0.0,0.0,0.0,0.0,0.0,0.0,0.0,2.444122314453125,0.0,0.0,-0.2979280352592468,0.0,698.6964111328125,0.0,-16369.0947265625,0.0,-2237.401611328125,0.0,44.95906448364258,0.0,1.9190269708633423
1731876176030.0,0.0,0.0,-20.0,0.0,0.0,0.0,0.0,0.0,0.0,0.0,0.0,0.0,0.0,0.0,0.0,0.0,2.10272216796875,0.0,0.0,-0.29970449209213257,0.0,601.1484375,0.0,-16372.96875,0.0,-2250.742431640625,0.0,44.96969985961914,0.0,1.6511034965515137
1731876176063.0,0.0,0.0,-20.0,0.0,0.0,0.0,0.0,0.0,0.0,0.0,0.0,0.0,0.0,0.0,0.0,0.0,1.413909912109375,0.0,0.0,-0.3029892146587372,0.0,404.2732238769531,0.0,-16379.01171875,0.0,-2275.410400390625,0.0,44.986297607421875,0.0,1.1103695631027222
1731876176063.0,0.0,0.0,-20.0,0.0,0.0,0.0,0.0,0.0,0.0,0.0,0.0,0.0,0.0,0.0,0.0,0.0,1.413909912109375,0.0,0.0,-0.3029892146587372,0.0,404.2732238769531,0.0,-16379.01171875,0.0,-2275.410400390625,0.0,44.986297607421875,0.0,1.1103695631027222
1731876176113.0,0.0,0.0,-20.0,0.0,0.0,0.0,0.0,0.0,0.0,0.0,0.0,0.0,0.0,0.0,0.0,0.0,0.7177734375,0.0,0.0,-0.3073106110095978,0.0,205.24534606933594,0.0,-16382.71484375,0.0,-2307.863525390625,0.0,44.9964714050293,0.0,0.5637232065200806
1731876176130.0,0.0,0.0,-20.0,0.0,0.0,0.0,0.0,0.0,0.0,0.0,0.0,0.0,0.0,0.0,0.0,0.0,0.365631103515625,0.0,0.0,-0.3085959851741791,0.0,104.5532455444336,0.0,-16383.6650390625,0.0,-2317.516357421875,0.0,44.99908447265625,0.0,0.28716403245925903
1731876176163.0,0.0,0.0,-20.0,0.0,0.0,0.0,0.0,0.0,0.0,0.0,0.0,0.0,0.0,0.0,0.0,0.0,-0.34299492835998535,0.0,0.0,-0.31087684631347656,0.0,-98.0804443359375,0.0,-16383.705078125,0.0,-2334.6455078125,0.0,44.99919128417969,0.0,-0.2693859934806824
1731876176163.0,0.0,0.0,-20.0,0.0,0.0,0.0,0.0,0.0,0.0,0.0,0.0,0.0,0.0,0.0,0.0,0.0,-0.34299492835998535,0.0,0.0,-0.31087684631347656,0.0,-98.0804443359375,0.0,-16383.705078125,0.0,-2334.6455078125,0.0,44.99919128417969,0.0,-0.2693859934806824
1731876176180.0,0.0,0.0,-20.0,0.0,0.0,0.0,0.0,0.0,0.0,0.0,0.0,0.0,0.0,0.0,0.0,0.0,-0.6992335915565491,0.0,0.0,-0.31188103556632996,0.0,-199.9442138671875,0.0,-16382.7802734375,0.0,-2342.186767578125,0.0,44.99665069580078,0.0,-0.5491631627082825
1731876176230.0,0.0,0.0,-20.0,0.0,0.0,0.0,0.0,0.0,0.0,0.0,0.0,0.0,0.0,0.0,0.0,0.0,-1.4160279035568237,0.0,0.0,-0.31439244747161865,0.0,-404.8786926269531,0.0,-16378.9970703125,0.0,-2361.047119140625,0.0,44.98625946044922,0.0,-1.1120325326919556
1731876176246.0,0.0,0.0,-20.0,0.0,0.0,0.0,0.0,0.0,0.0,0.0,0.0,0.0,0.0,0.0,0.0,0.0,-1.7762949466705322,0.0,0.0,-0.315046101808548,0.0,-507.8586120605469,0.0,-16376.126953125,0.0,-2365.9560546875,0.0,44.97837448120117,0.0,-1.3948752880096436
1731876176263.0,0.0,0.0,-20.0,0.0,0.0,0.0,0.0,0.0,0.0,0.0,0.0,0.0,0.0,0.0,0.0,0.0,-2.1373114585876465,0.0,0.0,-0.31562647223472595,0.0,-611.0326538085938,0.0,-16372.6025390625,0.0,-2370.314453125,0.0,44.968692779541016,0.0,-1.6782512664794922
1731876176280.0,0.0,0.0,-20.0,0.0,0.0,0.0,0.0,0.0,0.0,0.0,0.0,0.0,0.0,0.0,0.0,0.0,-2.498992443084717,0.0,0.0,-0.3161085844039917,0.0,-714.3721923828125,0.0,-16368.419921875,0.0,-2373.93505859375,0.0,44.95720672607422,0.0,-1.962081789970398
1731876176330.0,0.0,0.0,-20.0,0.0,0.0,0.0,0.0,0.0,0.0,0.0,0.0,0.0,0.0,0.0,0.0,0.0,-3.224263906478882,0.0,0.0,-0.3170337378978729,0.0,-921.5070190429688,0.0,-16358.0654296875,0.0,-2380.8828125,0.0,44.92876434326172,0.0,-2.5309946537017822
1731876176347.0,0.0,0.0,-20.0,0.0,0.0,0.0,0.0,0.0,0.0,0.0,0.0,0.0,0.0,0.0,0.0,0.0,-3.587557792663574,0.0,0.0,-0.3171665072441101,0.0,-1025.208984375,0.0,-16351.8935546875,0.0,-2381.8798828125,0.0,44.91181564331055,0.0,-2.8158206939697266
1731876176363.0,0.0,0.0,-20.0,0.0,0.0,0.0,0.0,0.0,0.0,0.0,0.0,0.0,0.0,0.0,0.0,0.0,-3.9510040283203125,0.0,0.0,-0.3172105550765991,0.0,-1128.913330078125,0.0,-16345.060546875,0.0,-2382.210693359375,0.0,44.89305114746094,0.0,-3.1006531715393066
1731876176380.0,0.0,0.0,-20.0,0.0,0.0,0.0,0.0,0.0,0.0,0.0,0.0,0.0,0.0,0.0,0.0,0.0,-4.3145012855529785,0.0,0.0,-0.31716734170913696,0.0,-1232.5865478515625,0.0,-16337.5693359375,0.0,-2381.88623046875,0.0,44.872474670410156,0.0,-3.3854000568389893
1731876176430.0,0.0,0.0,-20.0,0.0,0.0,0.0,0.0,0.0,0.0,0.0,0.0,0.0,0.0,0.0,0.0,0.0,-5.040990829467773,0.0,0.0,-0.3165069818496704,0.0,-1439.6363525390625,0.0,-16320.626953125,0.0,-2376.927001953125,0.0,44.82594299316406,0.0,-3.9540793895721436
1731876176447.0,0.0,0.0,-20.0,0.0,0.0,0.0,0.0,0.0,0.0,0.0,0.0,0.0,0.0,0.0,0.0,0.0,-5.403681755065918,0.0,0.0,-0.3161071836948395,0.0,-1542.9188232421875,0.0,-16311.1884765625,0.0,-2373.924560546875,0.0,44.800018310546875,0.0,-4.237752914428711
1731876176463.0,0.0,0.0,-20.0,0.0,0.0,0.0,0.0,0.0,0.0,0.0,0.0,0.0,0.0,0.0,0.0,0.0,-5.765913486480713,0.0,0.0,-0.31563153862953186,0.0,-1646.0087890625,0.0,-16301.107421875,0.0,-2370.3525390625,0.0,44.7723274230957,0.0,-4.520898342132568
1731876176480.0,0.0,0.0,-20.0,0.0,0.0,0.0,0.0,0.0,0.0,0.0,0.0,0.0,0.0,0.0,0.0,0.0,-6.127601146697998,0.0,0.0,-0.31505200266838074,0.0,-1748.87841796875,0.0,-16290.3935546875,0.0,-2366.000244140625,0.0,44.74290084838867,0.0,-4.803438186645508
1731876176513.0,0.0,0.0,-20.0,0.0,0.0,0.0,0.0,0.0,0.0,0.0,0.0,0.0,0.0,0.0,0.0,0.0,-6.48862361907959,0.0,0.0,-0.3136577606201172,0.0,-1851.4893798828125,0.0,-16279.0478515625,0.0,-2355.52978515625,0.0,44.71174240112305,0.0,-5.085267066955566
1731876176547.0,0.0,0.0,-20.0,0.0,0.0,0.0,0.0,0.0,0.0,0.0,0.0,0.0,0.0,0.0,0.0,0.0,-7.206518173217773,0.0,0.0,-0.31190088391304016,0.0,-2055.30908203125,0.0,-16254.5732421875,0.0,-2342.335693359375,0.0,44.6445198059082,0.0,-5.645074844360352
1731876176563.0,0.0,0.0,-20.0,0.0,0.0,0.0,0.0,0.0,0.0,0.0,0.0,0.0,0.0,0.0,0.0,0.0,-7.563930034637451,0.0,0.0,-0.31089848279953003,0.0,-2156.66455078125,0.0,-16241.4365234375,0.0,-2334.807861328125,0.0,44.608436584472656,0.0,-5.923456192016602
1731876176563.0,0.0,0.0,-20.0,0.0,0.0,0.0,0.0,0.0,0.0,0.0,0.0,0.0,0.0,0.0,0.0,0.0,-7.563930034637451,0.0,0.0,-0.31089848279953003,0.0,-2156.66455078125,0.0,-16241.4365234375,0.0,-2334.807861328125,0.0,44.608436584472656,0.0,-5.923456192016602
1731876176613.0,0.0,0.0,-20.0,0.0,0.0,0.0,0.0,0.0,0.0,0.0,0.0,0.0,0.0,0.0,0.0,0.0,-8.275184631347656,0.0,0.0,-0.30735674500465393,0.0,-2358.110107421875,0.0,-16213.4130859375,0.0,-2308.2099609375,0.0,44.53146743774414,0.0,-6.476742744445801
1731876176630.0,0.0,0.0,-20.0,0.0,0.0,0.0,0.0,0.0,0.0,0.0,0.0,0.0,0.0,0.0,0.0,0.0,-8.627388954162598,0.0,0.0,-0.30601203441619873,0.0,-2457.73095703125,0.0,-16198.6123046875,0.0,-2298.111328125,0.0,44.490814208984375,0.0,-6.750359535217285
1731876176663.0,0.0,0.0,-20.0,0.0,0.0,0.0,0.0,0.0,0.0,0.0,0.0,0.0,0.0,0.0,0.0,0.0,-9.327067375183105,0.0,0.0,-0.3030700385570526,0.0,-2655.355224609375,0.0,-16167.392578125,0.0,-2276.017333984375,0.0,44.405067443847656,0.0,-7.293150901794434
1731876176663.0,0.0,0.0,-20.0,0.0,0.0,0.0,0.0,0.0,0.0,0.0,0.0,0.0,0.0,0.0,0.0,0.0,-9.327067375183105,0.0,0.0,-0.3030700385570526,0.0,-2655.355224609375,0.0,-16167.392578125,0.0,-2276.017333984375,0.0,44.405067443847656,0.0,-7.293150901794434
1731876176680.0,0.0,0.0,-20.0,0.0,0.0,0.0,0.0,0.0,0.0,0.0,0.0,0.0,0.0,0.0,0.0,0.0,-9.674359321594238,0.0,0.0,-0.3014434278011322,0.0,-2753.302490234375,0.0,-16151.0,0.0,-2263.8017578125,0.0,44.360042572021484,0.0,-7.56217098236084
1731876176730.0,0.0,0.0,-20.0,0.0,0.0,0.0,0.0,0.0,0.0,0.0,0.0,0.0,0.0,0.0,0.0,0.0,-10.361258506774902,0.0,0.0,-0.2961180508136749,0.0,-2946.728759765625,0.0,-16116.83203125,0.0,-2223.808837890625,0.0,44.266197204589844,0.0,-8.093432426452637
1731876176747.0,0.0,0.0,-20.0,0.0,0.0,0.0,0.0,0.0,0.0,0.0,0.0,0.0,0.0,0.0,0.0,0.0,-10.700587272644043,0.0,0.0,-0.29418909549713135,0.0,-3042.126953125,0.0,-16099.0966796875,0.0,-2209.322509765625,0.0,44.217491149902344,0.0,-8.355451583862305
1731876176764.0,0.0,0.0,-20.0,0.0,0.0,0.0,0.0,0.0,0.0,0.0,0.0,0.0,0.0,0.0,0.0,0.0,-11.037701606750488,0.0,0.0,-0.29214510321617126,0.0,-3136.797119140625,0.0,-16080.919921875,0.0,-2193.972412109375,0.0,44.167564392089844,0.0,-8.615470886230469
1731876176780.0,0.0,0.0,-20.0,0.0,0.0,0.0,0.0,0.0,0.0,0.0,0.0,0.0,0.0,0.0,0.0,0.0,-11.372474670410156,0.0,0.0,-0.2900649309158325,0.0,-3230.701904296875,0.0,-16062.31640625,0.0,-2178.3505859375,0.0,44.11647033691406,0.0,-8.873387336730957
1731876176830.0,0.0,0.0,-20.0,0.0,0.0,0.0,0.0,0.0,0.0,0.0,0.0,0.0,0.0,0.0,0.0,0.0,-12.03214168548584,0.0,0.0,-0.2832697629928589,0.0,-3415.4150390625,0.0,-16024.056640625,0.0,-2127.31982421875,0.0,44.01138687133789,0.0,-9.380717277526855
1731876176847.0,0.0,0.0,-20.0,0.0,0.0,0.0,0.0,0.0,0.0,0.0,0.0,0.0,0.0,0.0,0.0,0.0,-12.356745719909668,0.0,0.0,-0.2808472812175751,0.0,-3506.142822265625,0.0,-16004.44921875,0.0,-2109.127197265625,0.0,43.95753479003906,0.0,-9.629908561706543
1731876176864.0,0.0,0.0,-20.0,0.0,0.0,0.0,0.0,0.0,0.0,0.0,0.0,0.0,0.0,0.0,0.0,0.0,-12.678572654724121,0.0,0.0,-0.2783604562282562,0.0,-3595.98291015625,0.0,-15984.5029296875,0.0,-2090.451416015625,0.0,43.90275192260742,0.0,-9.876662254333496
1731876176880.0,0.0,0.0,-20.0,0.0,0.0,0.0,0.0,0.0,0.0,0.0,0.0,0.0,0.0,0.0,0.0,0.0,-12.997550010681152,0.0,0.0,-0.27576345205307007,0.0,-3684.91552734375,0.0,-15964.2373046875,0.0,-2070.9482421875,0.0,43.847084045410156,0.0,-10.120923042297363
1731876176914.0,0.0,0.0,-20.0,0.0,0.0,0.0,0.0,0.0,0.0,0.0,0.0,0.0,0.0,0.0,0.0,0.0,-13.313551902770996,0.0,0.0,-0.2703767716884613,0.0,-3772.906494140625,0.0,-15943.6708984375,0.0,-2030.4949951171875,0.0,43.79059982299805,0.0,-10.362597465515137
1731876176947.0,0.0,0.0,-20.0,0.0,0.0,0.0,0.0,0.0,0.0,0.0,0.0,0.0,0.0,0.0,0.0,0.0,-13.930030822753906,0.0,0.0,-0.26475805044174194,0.0,-3944.23193359375,0.0,-15902.15234375,0.0,-1988.2991943359375,0.0,43.67656707763672,0.0,-10.83315658569336
1731876176963.0,0.0,0.0,-20.0,0.0,0.0,0.0,0.0,0.0,0.0,0.0,0.0,0.0,0.0,0.0,0.0,0.0,-14.233423233032227,0.0,0.0,-0.26179927587509155,0.0,-4028.38134765625,0.0,-15881.0458984375,0.0,-1966.0791015625,0.0,43.61859130859375,0.0,-11.064279556274414
1731876176963.0,0.0,0.0,-20.0,0.0,0.0,0.0,0.0,0.0,0.0,0.0,0.0,0.0,0.0,0.0,0.0,0.0,-14.233423233032227,0.0,0.0,-0.26179927587509155,0.0,-4028.38134765625,0.0,-15881.0458984375,0.0,-1966.0791015625,0.0,43.61859130859375,0.0,-11.064279556274414
1731876177014.0,0.0,0.0,-20.0,0.0,0.0,0.0,0.0,0.0,0.0,0.0,0.0,0.0,0.0,0.0,0.0,0.0,-14.829957962036133,0.0,0.0,-0.25248706340789795,0.0,-4193.5048828125,0.0,-15838.2451171875,0.0,-1896.1456298828125,0.0,43.50103759765625,0.0,-11.517805099487305
1731876177030.0,0.0,0.0,-20.0,0.0,0.0,0.0,0.0,0.0,0.0,0.0,0.0,0.0,0.0,0.0,0.0,0.0,-15.11928653717041,0.0,0.0,-0.24926453828811646,0.0,-4273.4306640625,0.0,-15816.8662109375,0.0,-1871.94482421875,0.0,43.44232177734375,0.0,-11.737327575683594
1731876177064.0,0.0,0.0,-20.0,0.0,0.0,0.0,0.0,0.0,0.0,0.0,0.0,0.0,0.0,0.0,0.0,0.0,-15.686698913574219,0.0,0.0,-0.24255192279815674,0.0,-4429.85595703125,0.0,-15773.76953125,0.0,-1821.533935546875,0.0,43.32395553588867,0.0,-12.166962623596191
1731876177064.0,0.0,0.0,-20.0,0.0,0.0,0.0,0.0,0.0,0.0,0.0,0.0,0.0,0.0,0.0,0.0,0.0,-15.686698913574219,0.0,0.0,-0.24255192279815674,0.0,-4429.85595703125,0.0,-15773.76953125,0.0,-1821.533935546875,0.0,43.32395553588867,0.0,-12.166962623596191
1731876177080.0,0.0,0.0,-20.0,0.0,0.0,0.0,0.0,0.0,0.0,0.0,0.0,0.0,0.0,0.0,0.0,0.0,-15.964643478393555,0.0,0.0,-0.2391248196363449,0.0,-4506.32275390625,0.0,-15752.095703125,0.0,-1795.796875,0.0,43.26442337036133,0.0,-12.376985549926758
1731876177130.0,0.0,0.0,-20.0,0.0,0.0,0.0,0.0,0.0,0.0,0.0,0.0,0.0,0.0,0.0,0.0,0.0,-16.504478454589844,0.0,0.0,-0.2284049242734909,0.0,-4654.53564453125,0.0,-15708.9375,0.0,-1715.291748046875,0.0,43.14588928222656,0.0,-12.784064292907715
1731876177147.0,0.0,0.0,-20.0,0.0,0.0,0.0,0.0,0.0,0.0,0.0,0.0,0.0,0.0,0.0,0.0,0.0,-16.766212463378906,0.0,0.0,-0.22467824816703796,0.0,-4726.24658203125,0.0,-15687.51171875,0.0,-1687.304931640625,0.0,43.087039947509766,0.0,-12.981023788452148
1731876177164.0,0.0,0.0,-20.0,0.0,0.0,0.0,0.0,0.0,0.0,0.0,0.0,0.0,0.0,0.0,0.0,0.0,-17.023677825927734,0.0,0.0,-0.22090911865234375,0.0,-4796.69287109375,0.0,-15666.1162109375,0.0,-1658.999267578125,0.0,43.02827453613281,0.0,-13.17451000213623
1731876177180.0,0.0,0.0,-20.0,0.0,0.0,0.0,0.0,0.0,0.0,0.0,0.0,0.0,0.0,0.0,0.0,0.0,-17.276823043823242,0.0,0.0,-0.2170996069908142,0.0,-4865.86181640625,0.0,-15644.7705078125,0.0,-1630.3902587890625,0.0,42.96964645385742,0.0,-13.36448860168457
1731876177214.0,0.0,0.0,-20.0,0.0,0.0,0.0,0.0,0.0,0.0,0.0,0.0,0.0,0.0,0.0,0.0,0.0,-17.52560043334961,0.0,0.0,-0.20922940969467163,0.0,-4933.7451171875,0.0,-15623.49609375,0.0,-1571.2861328125,0.0,42.91120910644531,0.0,-13.550935745239258
1731876177247.0,0.0,0.0,-20.0,0.0,0.0,0.0,0.0,0.0,0.0,0.0,0.0,0.0,0.0,0.0,0.0,0.0,-18.00052261352539,0.0,0.0,-0.20115424692630768,0.0,-5063.07666015625,0.0,-15582.0634765625,0.0,-1510.6427001953125,0.0,42.79741668701172,0.0,-13.906155586242676
1731876177264.0,0.0,0.0,-20.0,0.0,0.0,0.0,0.0,0.0,0.0,0.0,0.0,0.0,0.0,0.0,0.0,0.0,-18.231027603149414,0.0,0.0,-0.19710026681423187,0.0,-5125.72314453125,0.0,-15561.5673828125,0.0,-1480.1978759765625,0.0,42.74112319946289,0.0,-14.078219413757324
1731876177281.0,0.0,0.0,-20.0,0.0,0.0,0.0,0.0,0.0,0.0,0.0,0.0,0.0,0.0,0.0,0.0,0.0,-18.45688819885254,0.0,0.0,-0.19284717738628387,0.0,-5187.02734375,0.0,-15541.2421875,0.0,-1448.2576904296875,0.0,42.68529510498047,0.0,-14.246596336364746
1731876177297.0,0.0,0.0,-20.0,0.0,0.0,0.0,0.0,0.0,0.0,0.0,0.0,0.0,0.0,0.0,0.0,0.0,-18.67787742614746,0.0,0.0,-0.18867069482803345,0.0,-5246.9306640625,0.0,-15521.119140625,0.0,-1416.892822265625,0.0,42.630027770996094,0.0,-14.411125183105469
1731876177331.0,0.0,0.0,-20.0,0.0,0.0,0.0,0.0,0.0,0.0,0.0,0.0,0.0,0.0,0.0,0.0,0.0,-18.894075393676758,0.0,0.0,-0.1800217181444168,0.0,-5305.4599609375,0.0,-15501.2119140625,0.0,-1351.9400634765625,0.0,42.575347900390625,0.0,-14.571881294250488
1731876177364.0,0.0,0.0,-20.0,0.0,0.0,0.0,0.0,0.0,0.0,0.0,0.0,0.0,0.0,0.0,0.0,0.0,-19.301633834838867,0.0,0.0,-0.17125211656093597,0.0,-5415.5888671875,0.0,-15463.0810546875,0.0,-1286.08154296875,0.0,42.470619201660156,0.0,-14.874359130859375
1731876177381.0,0.0,0.0,-20.0,0.0,0.0,0.0,0.0,0.0,0.0,0.0,0.0,0.0,0.0,0.0,0.0,0.0,-19.49787139892578,0.0,0.0,-0.16671355068683624,0.0,-5468.517578125,0.0,-15444.4423828125,0.0,-1251.9974365234375,0.0,42.41942596435547,0.0,-15.019732475280762
1731876177397.0,0.0,0.0,-20.0,0.0,0.0,0.0,0.0,0.0,0.0,0.0,0.0,0.0,0.0,0.0,0.0,0.0,-19.68891143798828,0.0,0.0,-0.1622687578201294,0.0,-5519.9833984375,0.0,-15426.1220703125,0.0,-1218.61767578125,0.0,42.369110107421875,0.0,-15.161087036132812
1731876177431.0,0.0,0.0,-20.0,0.0,0.0,0.0,0.0,0.0,0.0,0.0,0.0,0.0,0.0,0.0,0.0,0.0,-19.874858856201172,0.0,0.0,-0.15304622054100037,0.0,-5570.0185546875,0.0,-15408.1259765625,0.0,-1149.3575439453125,0.0,42.31968307495117,0.0,-15.29851245880127
1731876177447.0,0.0,0.0,-20.0,0.0,0.0,0.0,0.0,0.0,0.0,0.0,0.0,0.0,0.0,0.0,0.0,0.0,-20.05023765563965,0.0,0.0,-0.14841262996196747,0.0,-5617.15576171875,0.0,-15391.0048828125,0.0,-1114.5599365234375,0.0,42.27265930175781,0.0,-15.427979469299316
1731876177481.0,0.0,0.0,-20.0,0.0,0.0,0.0,0.0,0.0,0.0,0.0,0.0,0.0,0.0,0.0,0.0,0.0,-20.38498878479004,0.0,0.0,-0.13897183537483215,0.0,-5706.9814453125,0.0,-15357.9228515625,0.0,-1043.6607666015625,0.0,42.18179702758789,0.0,-15.67469310760498
1731876177481.0,0.0,0.0,-20.0,0.0,0.0,0.0,0.0,0.0,0.0,0.0,0.0,0.0,0.0,0.0,0.0,0.0,-20.38498878479004,0.0,0.0,-0.13897183537483215,0.0,-5706.9814453125,0.0,-15357.9228515625,0.0,-1043.6607666015625,0.0,42.18179702758789,0.0,-15.67469310760498
1731876177531.0,0.0,0.0,-20.0,0.0,0.0,0.0,0.0,0.0,0.0,0.0,0.0,0.0,0.0,0.0,0.0,0.0,-20.697973251342773,0.0,0.0,-0.124514639377594,0.0,-5790.7900390625,0.0,-15326.5185546875,0.0,-935.0890502929688,0.0,42.095542907714844,0.0,-15.904879570007324
1731876177548.0,0.0,0.0,-20.0,0.0,0.0,0.0,0.0,0.0,0.0,0.0,0.0,0.0,0.0,0.0,0.0,0.0,-20.840656280517578,0.0,0.0,-0.11962728202342987,0.0,-5828.939453125,0.0,-15312.0517578125,0.0,-898.3856201171875,0.0,42.05580520629883,0.0,-16.009660720825195
1731876177581.0,0.0,0.0,-20.0,0.0,0.0,0.0,0.0,0.0,0.0,0.0,0.0,0.0,0.0,0.0,0.0,0.0,-21.109140396118164,0.0,0.0,-0.10980843007564545,0.0,-5900.6259765625,0.0,-15284.568359375,0.0,-824.6472778320312,0.0,41.980323791503906,0.0,-16.206552505493164
1731876177581.0,0.0,0.0,-20.0,0.0,0.0,0.0,0.0,0.0,0.0,0.0,0.0,0.0,0.0,0.0,0.0,0.0,-21.109140396118164,0.0,0.0,-0.10980843007564545,0.0,-5900.6259765625,0.0,-15284.568359375,0.0,-824.6472778320312,0.0,41.980323791503906,0.0,-16.206552505493164
1731876177598.0,0.0,0.0,-20.0,0.0,0.0,0.0,0.0,0.0,0.0,0.0,0.0,0.0,0.0,0.0,0.0,0.0,-21.23497200012207,0.0,0.0,-0.10476156324148178,0.0,-5934.1796875,0.0,-15271.5751953125,0.0,-786.7459716796875,0.0,41.94462966918945,0.0,-16.2987117767334
1731876177648.0,0.0,0.0,-20.0,0.0,0.0,0.0,0.0,0.0,0.0,0.0,0.0,0.0,0.0,0.0,0.0,0.0,-21.46364402770996,0.0,0.0,-0.08966998755931854,0.0,-5995.08251953125,0.0,-15247.767578125,0.0,-673.41015625,0.0,41.87924575805664,0.0,-16.465986251831055
1731876177664.0,0.0,0.0,-20.0,0.0,0.0,0.0,0.0,0.0,0.0,0.0,0.0,0.0,0.0,0.0,0.0,0.0,-21.56639862060547,0.0,0.0,-0.08456914126873016,0.0,-6022.41748046875,0.0,-15236.9931640625,0.0,-635.1034545898438,0.0,41.849647521972656,0.0,-16.54106330871582
1731876177681.0,0.0,0.0,-20.0,0.0,0.0,0.0,0.0,0.0,0.0,0.0,0.0,0.0,0.0,0.0,0.0,0.0,-21.663307189941406,0.0,0.0,-0.0795196145772934,0.0,-6048.1806640625,0.0,-15226.78515625,0.0,-597.18212890625,0.0,41.82161331176758,0.0,-16.61182403564453
1731876177698.0,0.0,0.0,-20.0,0.0,0.0,0.0,0.0,0.0,0.0,0.0,0.0,0.0,0.0,0.0,0.0,0.0,-21.75442886352539,0.0,0.0,-0.0742885172367096,0.0,-6072.3896484375,0.0,-15217.1474609375,0.0,-557.8972778320312,0.0,41.79513931274414,0.0,-16.678316116333008
1731876177748.0,0.0,0.0,-20.0,0.0,0.0,0.0,0.0,0.0,0.0,0.0,0.0,0.0,0.0,0.0,0.0,0.0,-21.912866592407227,0.0,0.0,-0.05881499871611595,0.0,-6114.44580078125,0.0,-15200.296875,0.0,-441.693115234375,0.0,41.748863220214844,0.0,-16.793827056884766
1731876177764.0,0.0,0.0,-20.0,0.0,0.0,0.0,0.0,0.0,0.0,0.0,0.0,0.0,0.0,0.0,0.0,0.0,-21.980262756347656,0.0,0.0,-0.053594086319208145,0.0,-6132.32080078125,0.0,-15193.0927734375,0.0,-402.4847412109375,0.0,41.72908020019531,0.0,-16.84292221069336
1731876177781.0,0.0,0.0,-20.0,0.0,0.0,0.0,0.0,0.0,0.0,0.0,0.0,0.0,0.0,0.0,0.0,0.0,-22.04167366027832,0.0,0.0,-0.04831035062670708,0.0,-6148.60205078125,0.0,-15186.51171875,0.0,-362.8045654296875,0.0,41.71099853515625,0.0,-16.88763999938965
1731876177798.0,0.0,0.0,-20.0,0.0,0.0,0.0,0.0,0.0,0.0,0.0,0.0,0.0,0.0,0.0,0.0,0.0,-22.09703254699707,0.0,0.0,-0.04312794655561447,0.0,-6163.2724609375,0.0,-15180.564453125,0.0,-323.8853759765625,0.0,41.694664001464844,0.0,-16.927932739257812
1731876177831.0,0.0,0.0,-20.0,0.0,0.0,0.0,0.0,0.0,0.0,0.0,0.0,0.0,0.0,0.0,0.0,0.0,-22.146455764770508,0.0,0.0,-0.03264262527227402,0.0,-6176.3642578125,0.0,-15175.2412109375,0.0,-245.14195251464844,0.0,41.68004608154297,0.0,-16.963891983032227
1731876177864.0,0.0,0.0,-20.0,0.0,0.0,0.0,0.0,0.0,0.0,0.0,0.0,0.0,0.0,0.0,0.0,0.0,-22.21529197692871,0.0,0.0,-0.022150089964270592,0.0,-6194.591796875,0.0,-15167.8115234375,0.0,-166.34434509277344,0.0,41.659637451171875,0.0,-17.013954162597656
1731876177881.0,0.0,0.0,-20.0,0.0,0.0,0.0,0.0,0.0,0.0,0.0,0.0,0.0,0.0,0.0,0.0,0.0,-22.240673065185547,0.0,0.0,-0.016893941909074783,0.0,-6201.310546875,0.0,-15165.0654296875,0.0,-126.87134552001953,0.0,41.652095794677734,0.0,-17.032407760620117
1731876177898.0,0.0,0.0,-20.0,0.0,0.0,0.0,0.0,0.0,0.0,0.0,0.0,0.0,0.0,0.0,0.0,0.0,-22.260032653808594,0.0,0.0,-0.011536398902535439,0.0,-6206.43408203125,0.0,-15162.96875,0.0,-86.63687896728516,0.0,41.646339416503906,0.0,-17.046480178833008
1731876177931.0,0.0,0.0,-20.0,0.0,0.0,0.0,0.0,0.0,0.0,0.0,0.0,0.0,0.0,0.0,0.0,0.0,-22.273250579833984,0.0,0.0,-0.0010065595852211118,0.0,-6209.93212890625,0.0,-15161.537109375,0.0,-7.559134006500244,0.0,41.64240646362305,0.0,-17.056087493896484
1731876177948.0,0.0,0.0,-20.0,0.0,0.0,0.0,0.0,0.0,0.0,0.0,0.0,0.0,0.0,0.0,0.0,0.0,-22.274404525756836,0.0,0.0,0.004317579325288534,0.0,-6210.2373046875,0.0,-15161.4111328125,0.0,32.424468994140625,0.0,41.64206314086914,0.0,-17.056926727294922
1731876177981.0,0.0,0.0,-20.0,0.0,0.0,0.0,0.0,0.0,0.0,0.0,0.0,0.0,0.0,0.0,0.0,0.0,-22.258365631103516,0.0,0.0,0.014912359416484833,0.0,-6205.9931640625,0.0,-15163.1494140625,0.0,111.98991394042969,0.0,41.64683532714844,0.0,-17.045269012451172
1731876177981.0,0.0,0.0,-20.0,0.0,0.0,0.0,0.0,0.0,0.0,0.0,0.0,0.0,0.0,0.0,0.0,0.0,-22.258365631103516,0.0,0.0,0.014912359416484833,0.0,-6205.9931640625,0.0,-15163.1494140625,0.0,111.98991394042969,0.0,41.64683532714844,0.0,-17.045269012451172
1731876178031.0,0.0,0.0,-20.0,0.0,0.0,0.0,0.0,0.0,0.0,0.0,0.0,0.0,0.0,0.0,0.0,0.0,-22.218015670776367,0.0,0.0,0.03082260861992836,0.0,-6195.31298828125,0.0,-15167.5166015625,0.0,231.47384643554688,0.0,41.65882873535156,0.0,-17.01593589782715
1731876178048.0,0.0,0.0,-20.0,0.0,0.0,0.0,0.0,0.0,0.0,0.0,0.0,0.0,0.0,0.0,0.0,0.0,-22.182703018188477,0.0,0.0,0.035963211208581924,0.0,-6185.9638671875,0.0,-15171.3330078125,0.0,270.0791320800781,0.0,41.669307708740234,0.0,-16.990257263183594
1731876178081.0,0.0,0.0,-20.0,0.0,0.0,0.0,0.0,0.0,0.0,0.0,0.0,0.0,0.0,0.0,0.0,0.0,-22.094141006469727,0.0,0.0,0.046530429273843765,0.0,-6162.505859375,0.0,-15180.875,0.0,349.4375915527344,0.0,41.695518493652344,0.0,-16.925827026367188
1731876178081.0,0.0,0.0,-20.0,0.0,0.0,0.0,0.0,0.0,0.0,0.0,0.0,0.0,0.0,0.0,0.0,0.0,-22.094141006469727,0.0,0.0,0.046530429273843765,0.0,-6162.505859375,0.0,-15180.875,0.0,349.4375915527344,0.0,41.695518493652344,0.0,-16.925827026367188
1731876178098.0,0.0,0.0,-20.0,0.0,0.0,0.0,0.0,0.0,0.0,0.0,0.0,0.0,0.0,0.0,0.0,0.0,-22.040821075439453,0.0,0.0,0.05176166072487831,0.0,-6148.3759765625,0.0,-15186.6044921875,0.0,388.72344970703125,0.0,41.71125411987305,0.0,-16.88701820373535
1731876178148.0,0.0,0.0,-20.0,0.0,0.0,0.0,0.0,0.0,0.0,0.0,0.0,0.0,0.0,0.0,0.0,0.0,-21.91024398803711,0.0,0.0,0.067344069480896,0.0,-6113.75,0.0,-15200.576171875,0.0,505.745361328125,0.0,41.749629974365234,0.0,-16.791915893554688
1731876178165.0,0.0,0.0,-20.0,0.0,0.0,0.0,0.0,0.0,0.0,0.0,0.0,0.0,0.0,0.0,0.0,0.0,-21.833072662353516,0.0,0.0,0.07253724336624146,0.0,-6093.27099609375,0.0,-15208.7958984375,0.0,544.7454223632812,0.0,41.77220916748047,0.0,-16.735668182373047
1731876178182.0,0.0,0.0,-20.0,0.0,0.0,0.0,0.0,0.0,0.0,0.0,0.0,0.0,0.0,0.0,0.0,0.0,-21.749954223632812,0.0,0.0,0.077653668820858,0.0,-6071.201171875,0.0,-15217.6201171875,0.0,583.1691284179688,0.0,41.79644012451172,0.0,-16.675052642822266
1731876178198.0,0.0,0.0,-20.0,0.0,0.0,0.0,0.0,0.0,0.0,0.0,0.0,0.0,0.0,0.0,0.0,0.0,-21.660966873168945,0.0,0.0,0.08277672529220581,0.0,-6047.55859375,0.0,-15227.03125,0.0,621.6426391601562,0.0,41.822288513183594,0.0,-16.61011505126953
1731876178248.0,0.0,0.0,-20.0,0.0,0.0,0.0,0.0,0.0,0.0,0.0,0.0,0.0,0.0,0.0,0.0,0.0,-21.459585189819336,0.0,0.0,0.09803865849971771,0.0,-5994.001953125,0.0,-15248.193359375,0.0,736.2578125,0.0,41.88041305541992,0.0,-16.4630184173584
1731876178265.0,0.0,0.0,-20.0,0.0,0.0,0.0,0.0,0.0,0.0,0.0,0.0,0.0,0.0,0.0,0.0,0.0,-21.347240447998047,0.0,0.0,0.10303327441215515,0.0,-5964.09228515625,0.0,-15259.9169921875,0.0,773.7667236328125,0.0,41.91261291503906,0.0,-16.380868911743164
1731876178282.0,0.0,0.0,-20.0,0.0,0.0,0.0,0.0,0.0,0.0,0.0,0.0,0.0,0.0,0.0,0.0,0.0,-21.229171752929688,0.0,0.0,0.10799950361251831,0.0,-5932.6337890625,0.0,-15272.17578125,0.0,811.0625,0.0,41.94628143310547,0.0,-16.294466018676758
1731876178298.0,0.0,0.0,-20.0,0.0,0.0,0.0,0.0,0.0,0.0,0.0,0.0,0.0,0.0,0.0,0.0,0.0,-21.10541534423828,0.0,0.0,0.11297214776277542,0.0,-5899.6328125,0.0,-15284.9521484375,0.0,848.4063720703125,0.0,41.98137664794922,0.0,-16.203824996948242
1731876178332.0,0.0,0.0,-20.0,0.0,0.0,0.0,0.0,0.0,0.0,0.0,0.0,0.0,0.0,0.0,0.0,0.0,-20.9759578704834,0.0,0.0,0.12277664244174957,0.0,-5865.08154296875,0.0,-15298.244140625,0.0,922.0369262695312,0.0,42.01788330078125,0.0,-16.10892677307129
1731876178365.0,0.0,0.0,-20.0,0.0,0.0,0.0,0.0,0.0,0.0,0.0,0.0,0.0,0.0,0.0,0.0,0.0,-20.689002990722656,0.0,0.0,0.13249781727790833,0.0,-5788.39013671875,0.0,-15327.4248046875,0.0,995.0416870117188,0.0,42.0980339050293,0.0,-15.89828872680664
1731876178382.0,0.0,0.0,-20.0,0.0,0.0,0.0,0.0,0.0,0.0,0.0,0.0,0.0,0.0,0.0,0.0,0.0,-20.537172317504883,0.0,0.0,0.13726413249969482,0.0,-5747.75341796875,0.0,-15342.7109375,0.0,1030.8360595703125,0.0,42.1400146484375,0.0,-15.786676406860352
1731876178399.0,0.0,0.0,-20.0,0.0,0.0,0.0,0.0,0.0,0.0,0.0,0.0,0.0,0.0,0.0,0.0,0.0,-20.379878997802734,0.0,0.0,0.1420791745185852,0.0,-5705.611328125,0.0,-15358.4326171875,0.0,1066.9964599609375,0.0,42.18319320678711,0.0,-15.670929908752441
1731876178432.0,0.0,0.0,-20.0,0.0,0.0,0.0,0.0,0.0,0.0,0.0,0.0,0.0,0.0,0.0,0.0,0.0,-20.21706771850586,0.0,0.0,0.15136490762233734,0.0,-5661.94580078125,0.0,-15374.583984375,0.0,1136.7310791015625,0.0,42.22755432128906,0.0,-15.55099868774414
1731876178465.0,0.0,0.0,-20.0,0.0,0.0,0.0,0.0,0.0,0.0,0.0,0.0,0.0,0.0,0.0,0.0,0.0,-19.864898681640625,0.0,0.0,0.16047728061676025,0.0,-5567.33935546875,0.0,-15409.09375,0.0,1205.1639404296875,0.0,42.32234191894531,0.0,-15.291153907775879
1731876178482.0,0.0,0.0,-20.0,0.0,0.0,0.0,0.0,0.0,0.0,0.0,0.0,0.0,0.0,0.0,0.0,0.0,-19.68100357055664,0.0,0.0,0.16510500013828278,0.0,-5517.8544921875,0.0,-15426.8837890625,0.0,1239.91748046875,0.0,42.37120056152344,0.0,-15.155240058898926
1731876178482.0,0.0,0.0,-20.0,0.0,0.0,0.0,0.0,0.0,0.0,0.0,0.0,0.0,0.0,0.0,0.0,0.0,-19.68100357055664,0.0,0.0,0.16510500013828278,0.0,-5517.8544921875,0.0,-15426.8837890625,0.0,1239.91748046875,0.0,42.37120056152344,0.0,-15.155240058898926
1731876178532.0,0.0,0.0,-20.0,0.0,0.0,0.0,0.0,0.0,0.0,0.0,0.0,0.0,0.0,0.0,0.0,0.0,-19.297460556030273,0.0,0.0,0.17851263284683228,0.0,-5414.462890625,0.0,-15463.4736328125,0.0,1340.6070556640625,0.0,42.471702575683594,0.0,-14.87126636505127
