ts,linPos_x,linPos_y,linPos_z,linVel_x,linVel_y,linVel_z,linAcc_x,linAcc_y,linAcc_z,force_x,force_y,force_z,torque_x,torque_y,torque_z,euler_x,euler_y,euler_z,angVel_x,angVel_y,angVel_z,accelerometer_x,accelerometer_y,accelerometer_z,gyroscope_x,gyroscope_y,gyroscope_z,magnetometer_x,magnetometer_y,magnetometer_z
1731876542487.0,0.0,0.0,-20.0,0.0,0.0,0.0,0.0,0.0,0.0,0.0,0.0,0.0,0.0,0.0,0.0,0.0,0.0,0.0,0.0,0.0,0.0,0.0,0.0,-16384.0,0.0,0.0,0.0,45.0,0.0,0.0
1731876542521.0,0.0,0.0,-20.0,0.0,0.0,0.0,0.0,0.0,0.0,0.0,0.0,0.0,0.0,0.0,0.0,0.0,0.0,0.0,0.0,0.0,0.0,0.0,0.0,-16384.0,0.0,0.0,0.0,45.0,0.0,0.0
1731876542554.0,0.0,0.0,-20.0,0.0,0.0,0.0,0.0,0.0,0.0,0.0,0.0,0.0,0.0,0.0,0.0,0.0,0.0,0.0,0.0,0.0,0.0,0.0,0.0,-16384.0,0.0,0.0,0.0,45.0,0.0,0.0
1731876542571.0,0.0,0.0,-20.0,0.0,0.0,0.0,0.0,0.0,0.0,0.0,0.0,0.0,0.0,0.0,0.0,0.0,0.0,0.0,0.0,0.0,0.0,0.0,0.0,-16384.0,0.0,0.0,0.0,45.0,0.0,0.0
1731876542587.0,0.0,0.0,-20.0,0.0,0.0,0.0,0.0,0.0,0.0,0.0,0.0,0.0,0.0,0.0,0.0,0.0,0.0,0.0,0.0,0.0,0.0,0.0,0.0,-16384.0,0.0,0.0,0.0,45.0,0.0,0.0
1731876542621.0,0.0,0.0,-20.0,0.0,0.0,0.0,0.0,0.0,0.0,0.0,0.0,0.0,0.0,0.0,0.0,0.0,0.0,0.0,0.0,0.0,0.0,0.0,0.0,-16384.0,0.0,0.0,0.0,45.0,0.0,0.0
1731876542654.0,0.0,0.0,-20.0,0.0,0.0,0.0,0.0,0.0,0.0,0.0,0.0,0.0,0.0,0.0,0.0,0.0,0.0,0.0,0.0,0.0,0.0,0.0,0.0,-16384.0,0.0,0.0,0.0,45.0,0.0,0.0
1731876542671.0,0.0,0.0,-20.0,0.0,0.0,0.0,0.0,0.0,0.0,0.0,0.0,0.0,0.0,0.0,0.0,0.0,0.0,0.0,0.0,0.0,0.0,0.0,0.0,-16384.0,0.0,0.0,0.0,45.0,0.0,0.0
1731876542671.0,0.0,0.0,-20.0,0.0,0.0,0.0,0.0,0.0,0.0,0.0,0.0,0.0,0.0,0.0,0.0,0.0,0.0,0.0,0.0,0.0,0.0,0.0,0.0,-16384.0,0.0,0.0,0.0,45.0,0.0,0.0
1731876542721.0,0.0,0.0,-20.0,0.0,0.0,0.0,0.0,0.0,0.0,0.0,0.0,0.0,0.0,0.0,0.0,0.0,0.0,0.0,0.0,0.0,0.0,0.0,0.0,-16384.0,0.0,0.0,0.0,45.0,0.0,0.0
1731876542738.0,0.0,0.0,-20.0,0.0,0.0,0.0,0.0,0.0,0.0,0.0,0.0,0.0,0.0,0.0,0.0,0.0,0.0,0.0,0.0,0.0,0.0,0.0,0.0,-16384.0,0.0,0.0,0.0,45.0,0.0,0.0
1731876542771.0,0.0,0.0,-20.0,0.0,0.0,0.0,0.0,0.0,0.0,0.0,0.0,0.0,0.0,0.0,0.0,0.0,0.0,0.0,0.0,0.0,0.0,0.0,0.0,-16384.0,0.0,0.0,0.0,45.0,0.0,0.0
1731876542771.0,0.0,0.0,-20.0,0.0,0.0,0.0,0.0,0.0,0.0,0.0,0.0,0.0,0.0,0.0,0.0,0.0,0.0,0.0,0.0,0.0,0.0,0.0,0.0,-16384.0,0.0,0.0,0.0,45.0,0.0,0.0
1731876542821.0,0.0,0.0,-20.0,0.0,0.0,0.0,0.0,0.0,0.0,0.0,0.0,0.0,0.0,0.0,0.0,0.0,0.0,0.0,0.0,0.0,0.0,0.0,0.0,-16384.0,0.0,0.0,0.0,45.0,0.0,0.0
1731876542838.0,0.0,0.0,-20.0,0.0,0.0,0.0,0.0,0.0,0.0,0.0,0.0,0.0,0.0,0.0,0.0,0.0,0.0,0.0,0.0,0.0,0.0,0.0,0.0,-16384.0,0.0,0.0,0.0,45.0,0.0,0.0
1731876542871.0,0.0,0.0,-20.0,0.0,0.0,0.0,0.0,0.0,0.0,0.0,0.0,0.0,0.0,0.0,0.0,0.0,0.0,0.0,0.0,0.0,0.0,0.0,0.0,-16384.0,0.0,0.0,0.0,45.0,0.0,0.0
1731876542871.0,0.0,0.0,-20.0,0.0,0.0,0.0,0.0,0.0,0.0,0.0,0.0,0.0,0.0,0.0,0.0,0.0,0.0,0.0,0.0,0.0,0.0,0.0,0.0,-16384.0,0.0,0.0,0.0,45.0,0.0,0.0
1731876542888.0,0.0,0.0,-20.0,0.0,0.0,0.0,0.0,0.0,0.0,0.0,0.0,0.0,0.0,0.0,0.0,0.0,0.0,0.0,0.0,0.0,0.0,0.0,0.0,-16384.0,0.0,0.0,0.0,45.0,0.0,0.0
1731876542938.0,0.0,0.0,-20.0,0.0,0.0,0.0,0.0,0.0,0.0,0.0,0.0,0.0,0.0,0.0,0.0,-0.036557383835315704,0.0,0.0,-0.02337557263672352,0.0,0.0,0.0,10.453756332397461,-16383.9970703125,-175.5475616455078,0.0,0.0,45.0,0.0,0.0
1731876542955.0,0.0,0.0,-20.0,0.0,0.0,0.0,0.0,0.0,0.0,0.0,0.0,0.0,0.0,0.0,0.0,-0.06334381550550461,0.0,0.0,-0.014856768772006035,0.0,0.0,0.0,18.113462448120117,-16383.990234375,-111.57243347167969,0.0,0.0,45.0,0.0,0.0
1731876542971.0,0.0,0.0,-20.0,0.0,0.0,0.0,0.0,0.0,0.0,0.0,0.0,0.0,0.0,0.0,0.0,-0.08036841452121735,0.0,0.0,-0.006352162454277277,0.0,0.0,0.0,22.981721878051758,-16383.984375,-47.70392990112305,0.0,0.0,45.0,0.0,0.0
1731876542988.0,0.0,0.0,-20.0,0.0,0.0,0.0,0.0,0.0,0.0,0.0,0.0,0.0,0.0,0.0,0.0,-0.0876474604010582,0.0,0.0,0.002129689557477832,0.0,0.0,0.0,25.06319808959961,-16383.98046875,15.993696212768555,0.0,0.0,45.0,0.0,0.0
1731876543038.0,0.0,0.0,-20.0,0.0,0.0,0.0,0.0,0.0,0.0,0.0,0.0,0.0,0.0,0.0,0.0,-0.04409463331103325,0.0,0.0,0.052630335092544556,0.0,0.0,0.0,12.609068870544434,-16383.9951171875,395.2471008300781,0.0,0.0,45.0,0.0,0.0
1731876543055.0,0.0,0.0,-20.0,0.0,0.0,0.0,0.0,0.0,0.0,0.0,0.0,0.0,0.0,0.0,0.0,0.016204833984375,0.0,0.0,0.06928524374961853,0.0,0.0,0.0,-4.633849620819092,-16383.998046875,520.3233032226562,0.0,0.0,45.0,0.0,0.0
1731876543072.0,0.0,0.0,-20.0,0.0,0.0,0.0,0.0,0.0,0.0,0.0,0.0,0.0,0.0,0.0,0.0,0.095611572265625,0.0,0.0,0.07744733989238739,0.0,0.0,0.0,-27.3405704498291,-16383.9775390625,581.61962890625,0.0,0.0,45.0,0.0,0.0
1731876543088.0,0.0,0.0,-20.0,0.0,0.0,0.0,0.0,0.0,0.0,0.0,0.0,0.0,0.0,0.0,0.0,0.184356689453125,0.0,0.0,0.09389407187700272,0.0,0.0,0.0,-52.71757888793945,-16383.916015625,705.1325073242188,0.0,0.0,45.0,0.0,0.0
1731876543121.0,0.0,0.0,-20.0,0.0,0.0,0.0,0.0,0.0,0.0,0.0,0.0,0.0,0.0,0.0,0.0,0.291961669921875,0.0,0.0,0.0932067334651947,0.0,0.0,0.0,-83.48746490478516,-16383.7861328125,699.9706420898438,0.0,0.0,45.0,0.0,0.0
1731876543154.0,0.0,0.0,-20.0,0.0,0.0,0.0,0.0,0.0,0.0,0.0,0.0,0.0,0.0,0.0,0.0,0.505126953125,0.0,0.0,0.09241434931755066,0.0,0.0,0.0,-144.4415740966797,-16383.36328125,694.0199584960938,0.0,0.0,45.0,0.0,0.0
1731876543172.0,0.0,0.0,-20.0,0.0,0.0,0.0,0.0,0.0,0.0,0.0,0.0,0.0,0.0,0.0,0.0,0.61102294921875,0.0,0.0,0.09196554869413376,0.0,0.0,0.0,-174.7216033935547,-16383.068359375,690.6495361328125,0.0,0.0,45.0,0.0,0.0
1731876543172.0,0.0,0.0,-20.0,0.0,0.0,0.0,0.0,0.0,0.0,0.0,0.0,0.0,0.0,0.0,0.0,0.61102294921875,0.0,0.0,0.09196554869413376,0.0,0.0,0.0,-174.7216033935547,-16383.068359375,690.6495361328125,0.0,0.0,45.0,0.0,0.0
1731876543221.0,0.0,0.0,-20.0,0.0,0.0,0.0,0.0,0.0,0.0,0.0,0.0,0.0,0.0,0.0,0.0,0.83062744140625,0.0,0.0,0.0985691249370575,0.0,0.0,0.0,-237.5135498046875,-16382.2783203125,740.2415161132812,0.0,0.0,45.0,0.0,0.0
1731876543237.0,0.0,0.0,-20.0,0.0,0.0,0.0,0.0,0.0,0.0,0.0,0.0,0.0,0.0,0.0,0.0,0.943572998046875,0.0,0.0,0.09799913316965103,0.0,0.0,0.0,-269.8069763183594,-16381.7783203125,735.9609985351562,0.0,0.0,45.0,0.0,0.0
1731876543271.0,0.0,0.0,-20.0,0.0,0.0,0.0,0.0,0.0,0.0,0.0,0.0,0.0,0.0,0.0,0.0,1.167449951171875,0.0,0.0,0.09674553573131561,0.0,0.0,0.0,-333.81475830078125,-16380.59765625,726.546630859375,0.0,0.0,45.0,0.0,0.0
1731876543271.0,0.0,0.0,-20.0,0.0,0.0,0.0,0.0,0.0,0.0,0.0,0.0,0.0,0.0,0.0,0.0,1.167449951171875,0.0,0.0,0.09674553573131561,0.0,0.0,0.0,-333.81475830078125,-16380.59765625,726.546630859375,0.0,0.0,45.0,0.0,0.0
1731876543288.0,0.0,0.0,-20.0,0.0,0.0,0.0,0.0,0.0,0.0,0.0,0.0,0.0,0.0,0.0,0.0,1.2783203125,0.0,0.0,0.09607667475938797,0.0,0.0,0.0,-365.51141357421875,-16379.9228515625,721.5235595703125,0.0,0.0,45.0,0.0,0.0
1731876543338.0,0.0,0.0,-20.0,0.0,0.0,0.0,0.0,0.0,0.0,0.0,0.0,0.0,0.0,0.0,0.0,1.496856689453125,0.0,0.0,0.09390569478273392,0.0,0.0,0.0,-427.984619140625,-16378.4091796875,705.2197875976562,0.0,0.0,45.0,0.0,0.0
1731876543355.0,0.0,0.0,-20.0,0.0,0.0,0.0,0.0,0.0,0.0,0.0,0.0,0.0,0.0,0.0,0.0,1.6044921875,0.0,0.0,0.09313828498125076,0.0,0.0,0.0,-458.752197265625,-16377.576171875,699.4566040039062,0.0,0.0,45.0,0.0,0.0
1731876543372.0,0.0,0.0,-20.0,0.0,0.0,0.0,0.0,0.0,0.0,0.0,0.0,0.0,0.0,0.0,0.0,1.711212158203125,0.0,0.0,0.0923333540558815,0.0,0.0,0.0,-489.2565002441406,-16376.6943359375,693.4116821289062,0.0,0.0,45.0,0.0,0.0
1731876543388.0,0.0,0.0,-20.0,0.0,0.0,0.0,0.0,0.0,0.0,0.0,0.0,0.0,0.0,0.0,0.0,1.8170166015625,0.0,0.0,0.09151444584131241,0.0,0.0,0.0,-519.4974365234375,-16375.7626953125,687.2617797851562,0.0,0.0,45.0,0.0,0.0
1731876543422.0,0.0,0.0,-20.0,0.0,0.0,0.0,0.0,0.0,0.0,0.0,0.0,0.0,0.0,0.0,0.0,1.921875,0.0,0.0,0.08978824317455292,0.0,0.0,0.0,-549.4662475585938,-16374.7841796875,674.2982177734375,0.0,0.0,45.0,0.0,0.0
1731876543455.0,0.0,0.0,-20.0,0.0,0.0,0.0,0.0,0.0,0.0,0.0,0.0,0.0,0.0,0.0,0.0,2.126617431640625,0.0,0.0,0.08795474469661713,0.0,0.0,0.0,-607.9767456054688,-16372.71484375,660.5288696289062,0.0,0.0,45.0,0.0,0.0
1731876543472.0,0.0,0.0,-20.0,0.0,0.0,0.0,0.0,0.0,0.0,0.0,0.0,0.0,0.0,0.0,0.0,2.2274169921875,0.0,0.0,0.08700420707464218,0.0,0.0,0.0,-636.7800903320312,-16371.62109375,653.3905029296875,0.0,0.0,45.0,0.0,0.0
1731876543472.0,0.0,0.0,-20.0,0.0,0.0,0.0,0.0,0.0,0.0,0.0,0.0,0.0,0.0,0.0,0.0,2.2274169921875,0.0,0.0,0.08700420707464218,0.0,0.0,0.0,-636.7800903320312,-16371.62109375,653.3905029296875,0.0,0.0,45.0,0.0,0.0
1731876543522.0,0.0,0.0,-20.0,0.0,0.0,0.0,0.0,0.0,0.0,0.0,0.0,0.0,0.0,0.0,0.0,2.42572021484375,0.0,0.0,0.08401903510093689,0.0,0.0,0.0,-693.4390258789062,-16369.318359375,630.9722290039062,0.0,0.0,45.0,0.0,0.0
1731876543539.0,0.0,0.0,-20.0,0.0,0.0,0.0,0.0,0.0,0.0,0.0,0.0,0.0,0.0,0.0,0.0,2.522003173828125,0.0,0.0,0.08296924084424973,0.0,0.0,0.0,-720.9459228515625,-16368.130859375,623.08837890625,0.0,0.0,45.0,0.0,0.0
1731876543572.0,0.0,0.0,-20.0,0.0,0.0,0.0,0.0,0.0,0.0,0.0,0.0,0.0,0.0,0.0,0.0,2.7109375,0.0,0.0,0.08081591874361038,0.0,0.0,0.0,-774.916259765625,-16365.6640625,606.917236328125,0.0,0.0,45.0,0.0,0.0
1731876543572.0,0.0,0.0,-20.0,0.0,0.0,0.0,0.0,0.0,0.0,0.0,0.0,0.0,0.0,0.0,0.0,2.7109375,0.0,0.0,0.08081591874361038,0.0,0.0,0.0,-774.916259765625,-16365.6640625,606.917236328125,0.0,0.0,45.0,0.0,0.0
1731876543622.0,0.0,0.0,-20.0,0.0,0.0,0.0,0.0,0.0,0.0,0.0,0.0,0.0,0.0,0.0,0.0,2.8948974609375,0.0,0.0,0.07741843909025192,0.0,0.0,0.0,-827.45751953125,-16363.091796875,581.402587890625,0.0,0.0,45.0,0.0,0.0
1731876543639.0,0.0,0.0,-20.0,0.0,0.0,0.0,0.0,0.0,0.0,0.0,0.0,0.0,0.0,0.0,0.0,2.983612060546875,0.0,0.0,0.07623384147882462,0.0,0.0,0.0,-852.79248046875,-16361.7900390625,572.5064086914062,0.0,0.0,45.0,0.0,0.0
1731876543672.0,0.0,0.0,-20.0,0.0,0.0,0.0,0.0,0.0,0.0,0.0,0.0,0.0,0.0,0.0,0.0,3.157012939453125,0.0,0.0,0.07385454326868057,0.0,0.0,0.0,-902.3060913085938,-16359.1357421875,554.63818359375,0.0,0.0,45.0,0.0,0.0
1731876543672.0,0.0,0.0,-20.0,0.0,0.0,0.0,0.0,0.0,0.0,0.0,0.0,0.0,0.0,0.0,0.0,3.157012939453125,0.0,0.0,0.07385454326868057,0.0,0.0,0.0,-902.3060913085938,-16359.1357421875,554.63818359375,0.0,0.0,45.0,0.0,0.0
1731876543689.0,0.0,0.0,-20.0,0.0,0.0,0.0,0.0,0.0,0.0,0.0,0.0,0.0,0.0,0.0,0.0,3.24163818359375,0.0,0.0,0.07259829342365265,0.0,0.0,0.0,-926.4674072265625,-16357.78515625,545.2039184570312,0.0,0.0,45.0,0.0,0.0
1731876543739.0,0.0,0.0,-20.0,0.0,0.0,0.0,0.0,0.0,0.0,0.0,0.0,0.0,0.0,0.0,0.0,3.4051513671875,0.0,0.0,0.06876398622989655,0.0,0.0,0.0,-973.1460571289062,-16355.07421875,516.4087524414062,0.0,0.0,45.0,0.0,0.0
1731876543755.0,0.0,0.0,-20.0,0.0,0.0,0.0,0.0,0.0,0.0,0.0,0.0,0.0,0.0,0.0,0.0,3.48394775390625,0.0,0.0,0.0674520879983902,0.0,0.0,0.0,-995.6375732421875,-16353.7197265625,506.55657958984375,0.0,0.0,45.0,0.0,0.0
1731876543772.0,0.0,0.0,-20.0,0.0,0.0,0.0,0.0,0.0,0.0,0.0,0.0,0.0,0.0,0.0,0.0,3.561248779296875,0.0,0.0,0.06611666828393936,0.0,0.0,0.0,-1017.700439453125,-16352.36328125,496.5277404785156,0.0,0.0,45.0,0.0,0.0
1731876543789.0,0.0,0.0,-20.0,0.0,0.0,0.0,0.0,0.0,0.0,0.0,0.0,0.0,0.0,0.0,0.0,3.636993408203125,0.0,0.0,0.06474292278289795,0.0,0.0,0.0,-1039.3172607421875,-16351.0029296875,486.2110900878906,0.0,0.0,45.0,0.0,0.0
1731876543839.0,0.0,0.0,-20.0,0.0,0.0,0.0,0.0,0.0,0.0,0.0,0.0,0.0,0.0,0.0,0.0,3.7822265625,0.0,0.0,0.060574471950531006,0.0,0.0,0.0,-1080.7603759765625,-16348.3154296875,454.90655517578125,0.0,0.0,45.0,0.0,0.0
1731876543855.0,0.0,0.0,-20.0,0.0,0.0,0.0,0.0,0.0,0.0,0.0,0.0,0.0,0.0,0.0,0.0,3.85162353515625,0.0,0.0,0.05916132405400276,0.0,0.0,0.0,-1100.5606689453125,-16346.994140625,444.2939758300781,0.0,0.0,45.0,0.0,0.0
1731876543872.0,0.0,0.0,-20.0,0.0,0.0,0.0,0.0,0.0,0.0,0.0,0.0,0.0,0.0,0.0,0.0,3.91943359375,0.0,0.0,0.05772138759493828,0.0,0.0,0.0,-1119.90673828125,-16345.681640625,433.4802551269531,0.0,0.0,45.0,0.0,0.0
1731876543889.0,0.0,0.0,-20.0,0.0,0.0,0.0,0.0,0.0,0.0,0.0,0.0,0.0,0.0,0.0,0.0,3.985565185546875,0.0,0.0,0.05622251704335213,0.0,0.0,0.0,-1138.7723388671875,-16344.376953125,422.2239074707031,0.0,0.0,45.0,0.0,0.0
1731876543922.0,0.0,0.0,-20.0,0.0,0.0,0.0,0.0,0.0,0.0,0.0,0.0,0.0,0.0,0.0,0.0,4.04998779296875,0.0,0.0,0.05330156162381172,0.0,0.0,0.0,-1157.149169921875,-16343.0869140625,400.2879333496094,0.0,0.0,45.0,0.0,0.0
1731876543955.0,0.0,0.0,-20.0,0.0,0.0,0.0,0.0,0.0,0.0,0.0,0.0,0.0,0.0,0.0,0.0,4.170440673828125,0.0,0.0,0.05028945207595825,0.0,0.0,0.0,-1191.5045166015625,-16340.6181640625,377.6673583984375,0.0,0.0,45.0,0.0,0.0
1731876543973.0,0.0,0.0,-20.0,0.0,0.0,0.0,0.0,0.0,0.0,0.0,0.0,0.0,0.0,0.0,0.0,4.228057861328125,0.0,0.0,0.048663780093193054,0.0,0.0,0.0,-1207.9361572265625,-16339.41015625,365.4587707519531,0.0,0.0,45.0,0.0,0.0
1731876543989.0,0.0,0.0,-20.0,0.0,0.0,0.0,0.0,0.0,0.0,0.0,0.0,0.0,0.0,0.0,0.0,4.2838134765625,0.0,0.0,0.04713651165366173,-0.023402491584420204,0.0,0.0,-1223.8358154296875,-16338.2275390625,353.98919677734375,-175.74972534179688,0.0,45.0,0.0,0.0
1731876544023.0,0.0,0.0,-20.0,0.0,0.0,0.0,0.0,0.0,0.0,0.0,0.0,0.0,0.0,0.0,0.0,4.33782958984375,-0.02674141712486744,-0.0020157787948846817,0.04402667284011841,0.010643001645803452,6.002665031701326e-11,-7.646834373474121,-1239.2381591796875,-16337.064453125,330.63470458984375,79.92758178710938,4.507924700192234e-07,44.999996185302734,-9.92649802356027e-06,-0.02106224186718464
1731876544056.0,0.0,0.0,-20.0,0.0,0.0,0.0,0.0,0.0,0.0,0.0,0.0,0.0,0.0,0.0,0.0,4.436920166015625,0.0169677734375,0.0013476904714480042,0.040862616151571274,0.036078207194805145,-5.638867150992155e-11,4.852015495300293,-1267.4906005859375,-16334.8984375,306.8730163574219,270.9427185058594,-4.2347173234702495e-07,44.999996185302734,-2.434672751405742e-05,0.01336840633302927
1731876544073.0,0.0,0.0,-20.0,0.0,0.0,0.0,0.0,0.0,0.0,0.0,0.0,0.0,0.0,0.0,0.0,4.4837646484375,0.058197021484375,0.004562861286103725,0.03922807797789574,0.04449531435966492,-2.546585164964199e-11,16.641712188720703,-1280.8448486328125,-16333.8486328125,294.5978698730469,334.15411376953125,-1.9124529160308157e-07,44.999977111816406,5.87388058193028e-07,0.045848097652196884
1731876544089.0,0.0,0.0,-20.0,0.0,0.0,0.0,0.0,0.0,0.0,0.0,0.0,0.0,0.0,0.0,0.0,4.528717041015625,0.109039306640625,0.008568854071199894,0.037623826414346695,0.052873339504003525,6.984919309616089e-10,31.18029022216797,-1293.6578369140625,-16332.818359375,282.5501403808594,397.072021484375,5.245585271040909e-06,44.99991989135742,5.3015537559986115e-05,0.08590324223041534
1731876544123.0,0.0,0.0,-20.0,0.0,0.0,0.0,0.0,0.0,0.0,0.0,0.0,0.0,0.0,0.0,0.0,4.57183837890625,0.16943359375,0.013375571928918362,0.03435481712222099,0.06105772405862808,2.1100277081131935e-10,48.45026779174805,-1305.9462890625,-16331.796875,258.0002746582031,458.53570556640625,1.5846038650124683e-06,44.99980545043945,0.00013536053302232176,0.1334865689277649
1731876544139.0,0.0,0.0,-20.0,0.0,0.0,0.0,0.0,0.0,0.0,0.0,0.0,0.0,0.0,0.0,0.0,4.6112060546875,0.239166259765625,0.018976571038365364,0.03271479904651642,0.0692940279841423,4.656612873077393e-10,68.39053344726562,-1317.161865234375,-16330.8251953125,245.6839599609375,520.3892822265625,3.4970566957781557e-06,44.99960708618164,0.0002452793705742806,0.18843039870262146
1731876544172.0,0.0,0.0,-20.0,0.0,0.0,0.0,0.0,0.0,0.0,0.0,0.0,0.0,0.0,0.0,0.0,4.684417724609375,0.40679931640625,0.03260859102010727,0.02943870797753334,0.07722120732069016,-2.9103830456733704e-11,116.32521057128906,-1338.0059814453125,-16328.8603515625,221.0809326171875,579.92138671875,-2.1856604348613473e-07,44.99885559082031,0.0005673081614077091,0.3205210268497467
1731876544172.0,0.0,0.0,-20.0,0.0,0.0,0.0,0.0,0.0,0.0,0.0,0.0,0.0,0.0,0.0,0.0,4.684417724609375,0.40679931640625,0.03260859102010727,0.02943870797753334,0.07722120732069016,-2.9103830456733704e-11,116.32521057128906,-1338.0059814453125,-16328.8603515625,221.0809326171875,579.92138671875,-2.1856604348613473e-07,44.99885559082031,0.0005673081614077091,0.3205210268497467
1731876544222.0,0.0,0.0,-20.0,0.0,0.0,0.0,0.0,0.0,0.0,0.0,0.0,0.0,0.0,0.0,0.0,4.750091552734375,0.582855224609375,0.047139525413513184,0.024388572201132774,0.0763433501124382,1.7462298274040222e-10,166.6673583984375,-1356.6856689453125,-16326.8818359375,183.15505981445312,573.3287963867188,1.3113963177602272e-06,44.99765396118164,0.0010113315656781197,0.4592590034008026
1731876544239.0,0.0,0.0,-20.0,0.0,0.0,0.0,0.0,0.0,0.0,0.0,0.0,0.0,0.0,0.0,0.0,4.778106689453125,0.6700439453125,0.05440573766827583,0.02269509807229042,0.0760088562965393,9.604264050722122e-10,191.597900390625,-1364.6458740234375,-16325.9453125,170.43728637695312,570.8167724609375,7.212679520307574e-06,44.99690246582031,0.0012525103520601988,0.5279695987701416
1731876544272.0,0.0,0.0,-20.0,0.0,0.0,0.0,0.0,0.0,0.0,0.0,0.0,0.0,0.0,0.0,0.0,4.828369140625,0.843231201171875,0.06896034628152847,0.01930849626660347,0.07528092712163925,2.0372681319713593e-10,241.11727905273438,-1378.912109375,-16324.08984375,145.00433349609375,565.3501586914062,1.5299623328246525e-06,44.995094299316406,0.001773107796907425,0.6644566655158997
1731876544272.0,0.0,0.0,-20.0,0.0,0.0,0.0,0.0,0.0,0.0,0.0,0.0,0.0,0.0,0.0,0.0,4.828369140625,0.843231201171875,0.06896034628152847,0.01930849626660347,0.07528092712163925,2.0372681319713593e-10,241.11727905273438,-1378.912109375,-16324.08984375,145.00433349609375,565.3501586914062,1.5299623328246525e-06,44.995094299316406,0.001773107796907425,0.6644566655158997
1731876544322.0,0.0,0.0,-20.0,0.0,0.0,0.0,0.0,0.0,0.0,0.0,0.0,0.0,0.0,0.0,0.0,4.870819091796875,1.014678955078125,0.08351002633571625,0.014155303128063679,0.0740252360701561,-1.3969838619232178e-09,290.1371154785156,-1390.9385986328125,-16322.2724609375,106.30451965332031,555.9200439453125,-1.0491170542081818e-05,44.99289321899414,0.0023113046772778034,0.7995758056640625
1731876544339.0,0.0,0.0,-20.0,0.0,0.0,0.0,0.0,0.0,0.0,0.0,0.0,0.0,0.0,0.0,0.0,4.887176513671875,1.09918212890625,0.09072592109441757,0.012361614964902401,0.07354694604873657,-5.529727786779404e-10,314.2970886230469,-1395.560546875,-16321.4296875,92.83415222167969,552.3281860351562,-4.152755082031945e-06,44.99166488647461,0.002546065952628851,0.8661738634109497
1731876544373.0,0.0,0.0,-20.0,0.0,0.0,0.0,0.0,0.0,0.0,0.0,0.0,0.0,0.0,0.0,0.0,4.913818359375,1.266571044921875,0.105081707239151,0.008915906772017479,0.07256918400526047,-1.4551915228366852e-11,362.1524963378906,-1403.06494140625,-16319.7939453125,66.95732116699219,544.9852905273438,-1.0928302174306737e-07,44.988929748535156,0.002973899245262146,0.9980934858322144
1731876544373.0,0.0,0.0,-20.0,0.0,0.0,0.0,0.0,0.0,0.0,0.0,0.0,0.0,0.0,0.0,0.0,4.913818359375,1.266571044921875,0.105081707239151,0.008915906772017479,0.07256918400526047,-1.4551915228366852e-11,362.1524963378906,-1403.06494140625,-16319.7939453125,66.95732116699219,544.9852905273438,-1.0928302174306737e-07,44.988929748535156,0.002973899245262146,0.9980934858322144
1731876544389.0,0.0,0.0,-20.0,0.0,0.0,0.0,0.0,0.0,0.0,0.0,0.0,0.0,0.0,0.0,0.0,4.9241943359375,1.34942626953125,0.11221414059400558,0.007182776927947998,0.07204830646514893,-7.275957614183426e-10,385.8392028808594,-1405.9739990234375,-16319.0029296875,53.94173812866211,541.0736083984375,-5.464151399792172e-06,44.98743438720703,0.0031578768976032734,1.0633907318115234
1731876544439.0,0.0,0.0,-20.0,0.0,0.0,0.0,0.0,0.0,0.0,0.0,0.0,0.0,0.0,0.0,0.0,4.93707275390625,1.5126953125,0.126306414604187,0.0020115463994443417,0.07037919014692307,-6.075424607843161e-10,432.51214599609375,-1409.54150390625,-16317.5224609375,15.106456756591797,528.5387573242188,-4.562566118693212e-06,44.98420715332031,0.00340220401994884,1.1920571327209473
1731876544456.0,0.0,0.0,-20.0,0.0,0.0,0.0,0.0,0.0,0.0,0.0,0.0,0.0,0.0,0.0,0.0,4.9395751953125,1.593048095703125,0.13325145840644836,0.0002797056804411113,0.06978186219930649,-2.4556356947869062e-11,455.4809875488281,-1410.2008056640625,-16316.8408203125,2.1005539894104004,524.0528564453125,-1.844151000796046e-07,44.982486724853516,0.003451898228377104,1.2553776502609253
1731876544473.0,0.0,0.0,-20.0,0.0,0.0,0.0,0.0,0.0,0.0,0.0,0.0,0.0,0.0,0.0,0.0,4.940093994140625,1.672698974609375,0.14013992249965668,-0.0014967800816521049,0.0691492110490799,-8.185452315956354e-10,478.2482604980469,-1410.29248046875,-16316.18359375,-11.24062728881836,519.3017578125,-6.147170097392518e-06,44.980690002441406,0.003458027495071292,1.3181430101394653
1731876544489.0,0.0,0.0,-20.0,0.0,0.0,0.0,0.0,0.0,0.0,0.0,0.0,0.0,0.0,0.0,0.0,4.938568115234375,1.75164794921875,0.14696551859378815,-0.00320282275788486,0.06852259486913681,3.2741809263825417e-10,500.81402587890625,-1409.7999267578125,-16315.5478515625,-24.05278968811035,514.595947265625,2.4588680389570072e-06,44.978824615478516,0.0034175743348896503,1.38035249710083
1731876544522.0,0.0,0.0,-20.0,0.0,0.0,0.0,0.0,0.0,0.0,0.0,0.0,0.0,0.0,0.0,0.0,4.93511962890625,1.82989501953125,0.15372614562511444,-0.006675427779555321,0.06718944758176804,5.966285243630409e-10,523.1782836914062,-1408.7578125,-16314.9365234375,-50.13161087036133,504.58416748046875,4.480603820411488e-06,44.976890563964844,0.003328631864860654,1.4420065879821777
1731876544539.0,0.0,0.0,-20.0,0.0,0.0,0.0,0.0,0.0,0.0,0.0,0.0,0.0,0.0,0.0,0.0,4.92767333984375,1.906585693359375,0.16034825146198273,-0.008434576913714409,0.0664844959974289,-4.0745362639427185e-10,545.0966186523438,-1406.575927734375,-16314.40625,-63.342594146728516,499.2900695800781,-3.059924665649305e-06,44.974910736083984,0.003130536060780287,1.50243079662323
1731876544572.0,0.0,0.0,-20.0,0.0,0.0,0.0,0.0,0.0,0.0,0.0,0.0,0.0,0.0,0.0,0.0,4.9068603515625,2.0576171875,0.17334941029548645,-0.01185025367885828,0.06505846977233887,-5.238689482212067e-10,588.2589721679688,-1400.521728515625,-16313.4296875,-88.99388885498047,488.580810546875,-3.934188953280682e-06,44.97077560424805,0.002551231300458312,1.6214184761047363
1731876544572.0,0.0,0.0,-20.0,0.0,0.0,0.0,0.0,0.0,0.0,0.0,0.0,0.0,0.0,0.0,0.0,4.9068603515625,2.0576171875,0.17334941029548645,-0.01185025367885828,0.06505846977233887,-5.238689482212067e-10,588.2589721679688,-1400.521728515625,-16313.4296875,-88.99388885498047,488.580810546875,-3.934188953280682e-06,44.97077560424805,0.002551231300458312,1.6214184761047363
1731876544622.0,0.0,0.0,-20.0,0.0,0.0,0.0,0.0,0.0,0.0,0.0,0.0,0.0,0.0,0.0,0.0,4.87811279296875,2.205291748046875,0.18600007891654968,-0.017027104273438454,0.06275159865617752,-1.7462298274040222e-10,630.4579467773438,-1392.203125,-16312.5634765625,-127.87137603759766,471.2565002441406,-1.3113963177602272e-06,44.966434478759766,0.001693762606009841,1.737745761871338
1731876544639.0,0.0,0.0,-20.0,0.0,0.0,0.0,0.0,0.0,0.0,0.0,0.0,0.0,0.0,0.0,0.0,4.85882568359375,2.27691650390625,0.19210749864578247,-0.018783530220389366,0.06192852556705475,9.313225746154785e-10,650.9237060546875,-1386.6439208984375,-16312.2353515625,-141.06192016601562,465.0753173828125,6.994113391556311e-06,44.96421813964844,0.001090317964553833,1.7941604852676392
1731876544656.0,0.0,0.0,-20.0,0.0,0.0,0.0,0.0,0.0,0.0,0.0,0.0,0.0,0.0,0.0,0.0,4.837554931640625,2.347625732421875,0.19811005890369415,-0.02052198350429535,0.06109343841671944,-1.1641532182693481e-10,671.126953125,-1380.5191650390625,-16311.93359375,-154.1174774169922,458.8039245605469,-8.742641739445389e-07,44.96196365356445,0.000406092731282115,1.8498494625091553
1731876544673.0,0.0,0.0,-20.0,0.0,0.0,0.0,0.0,0.0,0.0,0.0,0.0,0.0,0.0,0.0,0.0,4.81427001953125,2.417388916015625,0.20400480926036835,-0.022186093032360077,0.06027482450008392,-5.820766091346741e-10,691.0587768554688,-1373.8203125,-16311.669921875,-166.61473083496094,452.6562194824219,-4.371321210783208e-06,44.95967102050781,-0.00036465469747781754,1.9047883749008179
1731876544690.0,0.0,0.0,-20.0,0.0,0.0,0.0,0.0,0.0,0.0,0.0,0.0,0.0,0.0,0.0,0.0,4.789093017578125,2.486236572265625,0.20979176461696625,-0.023918692022562027,0.05940232053399086,0.0,710.7280883789062,-1366.5821533203125,-16311.4306640625,-179.62632751464844,446.1038513183594,0.0,44.957340240478516,-0.0012205936945974827,1.9590011835098267
1731876544740.0,0.0,0.0,-20.0,0.0,0.0,0.0,0.0,0.0,0.0,0.0,0.0,0.0,0.0,0.0,0.0,4.730926513671875,2.619873046875,0.22093543410301208,-0.028975022956728935,0.05673590302467346,1.1641532182693481e-10,748.9041137695312,-1349.8818359375,-16311.11328125,-217.59872436523438,426.0793762207031,8.742641739445389e-07,44.95262908935547,-0.0032839353661984205,2.0642147064208984
1731876544757.0,0.0,0.0,-20.0,0.0,0.0,0.0,0.0,0.0,0.0,0.0,0.0,0.0,0.0,0.0,0.0,4.697967529296875,2.6846923828125,0.2262846976518631,-0.030665205791592598,0.05580378696322441,-2.3283064365386963e-10,767.4196166992188,-1340.4285888671875,-16311.0322265625,-230.29177856445312,419.0793151855469,-1.7485283478890778e-06,44.950260162353516,-0.004493444226682186,2.115238904953003
1731876544773.0,0.0,0.0,-20.0,0.0,0.0,0.0,0.0,0.0,0.0,0.0,0.0,0.0,0.0,0.0,0.0,4.6630859375,2.7484130859375,0.2315085381269455,-0.03230425715446472,0.05487988889217377,0.0,785.6204223632812,-1330.4278564453125,-16310.984375,-242.60084533691406,412.1409606933594,0.0,44.94786834716797,-0.005806479603052139,2.1653928756713867
1731876544789.0,0.0,0.0,-20.0,0.0,0.0,0.0,0.0,0.0,0.0,0.0,0.0,0.0,0.0,0.0,0.0,4.626312255859375,2.81109619140625,0.23660698533058167,-0.03391645848751068,0.05395158752799034,-2.3283064365386963e-10,803.52392578125,-1319.8887939453125,-16310.96875,-254.70826721191406,405.1695251464844,-1.7485283478890778e-06,44.945465087890625,-0.00722142867743969,2.214723825454712
1731876544840.0,0.0,0.0,-20.0,0.0,0.0,0.0,0.0,0.0,0.0,0.0,0.0,0.0,0.0,0.0,0.0,4.5452880859375,2.93212890625,0.24632886052131653,-0.03888057917356491,0.05096815899014473,-2.3283064365386963e-10,838.0902709960938,-1296.68408203125,-16311.0908203125,-291.9881896972656,382.7643737792969,-1.7485283478890778e-06,44.940673828125,-0.010441378690302372,2.3099546432495117
1731876544857.0,0.0,0.0,-20.0,0.0,0.0,0.0,0.0,0.0,0.0,0.0,0.0,0.0,0.0,0.0,0.0,4.5009765625,2.990325927734375,0.2509409487247467,-0.04048233851790428,0.049963921308517456,-0.023402446880936623,854.7097778320312,-1284.00146484375,-16311.2294921875,-304.0171813964844,375.22265625,-175.7493896484375,44.93829345703125,-0.01225687749683857,2.3557348251342773
1731876544873.0,0.0,0.0,-20.0,0.0,0.0,0.0,0.0,0.0,0.0,0.0,0.0,0.0,0.0,0.0,0.0,4.453399658203125,3.04949951171875,0.228643998503685,-0.04205545783042908,0.0489572137594223,0.0021393548231571913,871.6072998046875,-1270.387451171875,-16311.4052734375,-315.83111572265625,367.66241455078125,16.066282272338867,44.93592071533203,0.00684990081936121,2.4006378650665283
1731876544890.0,0.0,0.0,-20.0,0.0,0.0,0.0,0.0,0.0,0.0,0.0,0.0,0.0,0.0,0.0,0.0,4.40557861328125,3.105255126953125,0.2354307770729065,-0.04366351291537285,0.0479067862033844,0.019147587940096855,887.5279541015625,-1256.707275390625,-16311.6044921875,-327.90740966796875,359.7738342285156,143.7959442138672,44.93354415893555,0.0028905831277370453,2.4446487426757812
1731876544923.0,0.0,0.0,-20.0,0.0,0.0,0.0,0.0,0.0,0.0,0.0,0.0,0.0,0.0,0.0,0.0,4.356964111328125,3.1583251953125,0.261540949344635,-0.046801887452602386,0.045792534947395325,0.0615343302488327,902.680908203125,-1242.8035888671875,-16311.837890625,-351.4761962890625,343.8960876464844,462.1149597167969,44.93117904663086,-0.01646972820162773,2.487701654434204
1731876544957.0,0.0,0.0,-20.0,0.0,0.0,0.0,0.0,0.0,0.0,0.0,0.0,0.0,0.0,0.0,0.0,4.257354736328125,3.249725341796875,0.4294797480106354,-0.04989928752183914,0.04361923038959503,0.08669982850551605,928.7761840820312,-1214.3349609375,-16312.5166015625,-374.7372741699219,327.5748596191406,651.1046142578125,44.92637634277344,-0.14700965583324432,2.568890333175659
1731876544973.0,0.0,0.0,-20.0,0.0,0.0,0.0,0.0,0.0,0.0,0.0,0.0,0.0,0.0,0.0,0.0,4.206024169921875,3.292236328125,0.5324155688285828,-0.051357924938201904,0.04256465658545494,0.09496616572141647,940.9127807617188,-1199.6695556640625,-16312.9072265625,-385.69146728515625,319.6551208496094,713.1837768554688,44.92379379272461,-0.22749415040016174,2.607891321182251
1731876544990.0,0.0,0.0,-20.0,0.0,0.0,0.0,0.0,0.0,0.0,0.0,0.0,0.0,0.0,0.0,0.0,4.1536865234375,3.33294677734375,0.6446919441223145,-0.052924204617738724,0.041409239172935486,0.09473199397325516,952.5345458984375,-1184.7188720703125,-16313.326171875,-397.4540100097656,310.97808837890625,711.4251708984375,44.92103958129883,-0.31551358103752136,2.6458516120910645
1731876545023.0,0.0,0.0,-20.0,0.0,0.0,0.0,0.0,0.0,0.0,0.0,0.0,0.0,0.0,0.0,0.0,4.099578857421875,3.372467041015625,0.7565715909004211,-0.055831193923950195,0.03919915109872818,0.11096102744340897,963.816162109375,-1169.265625,-16313.7763671875,-419.2851257324219,294.380615234375,833.3031616210938,44.91815185546875,-0.4034402072429657,2.682675838470459
1731876545056.0,0.0,0.0,-20.0,0.0,0.0,0.0,0.0,0.0,0.0,0.0,0.0,0.0,0.0,0.0,0.0,3.98541259765625,3.44287109375,1.016538143157959,-0.05873655155301094,0.03690054640173912,0.11021596193313599,983.9130859375,-1136.6737060546875,-16314.880859375,-441.10400390625,277.1183776855469,827.7078247070312,44.91171646118164,-0.6086208820343018,2.7509255409240723
1731876545073.0,0.0,0.0,-20.0,0.0,0.0,0.0,0.0,0.0,0.0,0.0,0.0,0.0,0.0,0.0,0.0,3.925872802734375,3.476348876953125,1.1456878185272217,-0.06017538532614708,0.03572715073823929,0.10979429632425308,993.46875,-1119.6796875,-16315.4765625,-451.9094543457031,268.30633544921875,824.5411376953125,44.9082145690918,-0.7108685374259949,2.783299207687378
1731876545073.0,0.0,0.0,-20.0,0.0,0.0,0.0,0.0,0.0,0.0,0.0,0.0,0.0,0.0,0.0,0.0,3.925872802734375,3.476348876953125,1.1456878185272217,-0.06017538532614708,0.03572715073823929,0.10979429632425308,993.46875,-1119.6796875,-16315.4765625,-451.9094543457031,268.30633544921875,824.5411376953125,44.9082145690918,-0.7108685374259949,2.783299207687378
1731876545123.0,0.0,0.0,-20.0,0.0,0.0,0.0,0.0,0.0,0.0,0.0,0.0,0.0,0.0,0.0,0.0,3.80206298828125,3.539794921875,1.402150273323059,-0.06434343755245209,0.03218739852309227,0.10836151987314224,1011.5773315429688,-1084.3475341796875,-16316.75,-483.21099853515625,241.72325134277344,813.7811889648438,44.900699615478516,-0.9145340919494629,2.844451427459717
1731876545140.0,0.0,0.0,-20.0,0.0,0.0,0.0,0.0,0.0,0.0,0.0,0.0,0.0,0.0,0.0,0.0,3.736175537109375,3.56842041015625,1.5287227630615234,-0.06569783389568329,0.03098929673433304,0.10782402753829956,1019.7472534179688,-1065.55029296875,-16317.4794921875,-493.3823547363281,232.7256622314453,809.7446899414062,44.89677047729492,-1.0155190229415894,2.872100591659546
1731876545173.0,0.0,0.0,-20.0,0.0,0.0,0.0,0.0,0.0,0.0,0.0,0.0,0.0,0.0,0.0,0.0,3.59979248046875,3.62213134765625,1.779618740081787,-0.06836636364459991,0.028554370626807213,0.10665327310562134,1035.075927734375,-1026.645751953125,-16319.0107421875,-513.4226684570312,214.43968200683594,800.9524536132812,44.88844680786133,-1.2163152694702148,2.923686981201172
1731876545173.0,0.0,0.0,-20.0,0.0,0.0,0.0,0.0,0.0,0.0,0.0,0.0,0.0,0.0,0.0,0.0,3.59979248046875,3.62213134765625,1.779618740081787,-0.06836636364459991,0.028554370626807213,0.10665327310562134,1035.075927734375,-1026.645751953125,-16319.0107421875,-513.4226684570312,214.43968200683594,800.9524536132812,44.88844680786133,-1.2163152694702148,2.923686981201172
1731876545223.0,0.0,0.0,-20.0,0.0,0.0,0.0,0.0,0.0,0.0,0.0,0.0,0.0,0.0,0.0,0.0,3.45733642578125,3.6710205078125,2.027298927307129,-0.07222767919301987,0.024840887635946274,0.10467343032360077,1049.027587890625,-986.0145263671875,-16320.6240234375,-542.420654296875,186.55189514160156,786.0841064453125,44.87955856323242,-1.4153621196746826,2.970196485519409
1731876545240.0,0.0,0.0,-20.0,0.0,0.0,0.0,0.0,0.0,0.0,0.0,0.0,0.0,0.0,0.0,0.0,3.38238525390625,3.692291259765625,2.1489815711975098,-0.07349002361297607,0.023573443293571472,0.10394589602947235,1055.09765625,-964.6408081054688,-16321.509765625,-551.9006958007812,177.03355407714844,780.6204223632812,44.87500762939453,-1.5136159658432007,2.9903857707977295
1731876545273.0,0.0,0.0,-20.0,0.0,0.0,0.0,0.0,0.0,0.0,0.0,0.0,0.0,0.0,0.0,0.0,3.228118896484375,3.7310791015625,2.3894925117492676,-0.0758858248591423,0.02108820714056492,0.10244525969028473,1066.1658935546875,-920.652099609375,-16323.33203125,-569.892822265625,158.36973571777344,769.350830078125,44.86557388305664,-1.7084277868270874,3.0267727375030518
1731876545273.0,0.0,0.0,-20.0,0.0,0.0,0.0,0.0,0.0,0.0,0.0,0.0,0.0,0.0,0.0,0.0,3.228118896484375,3.7310791015625,2.3894925117492676,-0.0758858248591423,0.02108820714056492,0.10244525969028473,1066.1658935546875,-920.652099609375,-16323.33203125,-569.892822265625,158.36973571777344,769.350830078125,44.86557388305664,-1.7084277868270874,3.0267727375030518
1731876545290.0,0.0,0.0,-20.0,0.0,0.0,0.0,0.0,0.0,0.0,0.0,0.0,0.0,0.0,0.0,0.0,3.14892578125,3.748687744140625,2.5083017349243164,-0.07710672169923782,0.01977868750691414,0.10161585360765457,1071.1904296875,-898.0714111328125,-16324.2607421875,-579.0616455078125,148.53541564941406,763.1220703125,44.860694885253906,-1.8049533367156982,3.043037176132202
1731876545340.0,0.0,0.0,-20.0,0.0,0.0,0.0,0.0,0.0,0.0,0.0,0.0,0.0,0.0,0.0,0.0,2.984893798828125,3.7786865234375,2.7416980266571045,-0.08054198324680328,0.015920152887701988,0.09902080148458481,1079.750244140625,-851.3037109375,-16326.2021484375,-604.8599853515625,119.55831146240234,743.633544921875,44.85077667236328,-1.9953312873840332,3.070295572280884
1731876545357.0,0.0,0.0,-20.0,0.0,0.0,0.0,0.0,0.0,0.0,0.0,0.0,0.0,0.0,0.0,0.0,2.900177001953125,3.79107666015625,2.856204032897949,-0.0816197618842125,0.014651315286755562,0.09811908006668091,1083.2855224609375,-827.1513061523438,-16327.2099609375,-612.9539794921875,110.02950286865234,736.8617553710938,44.84575271606445,-2.0891034603118896,3.0812830924987793
1731876545373.0,0.0,0.0,-20.0,0.0,0.0,0.0,0.0,0.0,0.0,0.0,0.0,0.0,0.0,0.0,0.0,2.81414794921875,3.80224609375,2.9695863723754883,-0.08268719166517258,0.01336431223899126,0.09718040376901627,1086.472412109375,-802.6249389648438,-16328.2216796875,-620.9702758789062,100.3642807006836,729.8124389648438,44.84065628051758,-2.182141065597534,3.0909411907196045
1731876545390.0,0.0,0.0,-20.0,0.0,0.0,0.0,0.0,0.0,0.0,0.0,0.0,0.0,0.0,0.0,0.0,2.726837158203125,3.8121337890625,3.0818047523498535,-0.08372422307729721,0.012083129025995731,0.09622214734554291,1089.293701171875,-777.733154296875,-16329.2373046875,-628.7582397460938,90.74275207519531,722.6160278320312,44.83549880981445,-2.2744088172912598,3.0992205142974854
1731876545440.0,0.0,0.0,-20.0,0.0,0.0,0.0,0.0,0.0,0.0,0.0,0.0,0.0,0.0,0.0,0.0,2.5472412109375,3.826751708984375,3.3013861179351807,-0.0867544487118721,0.008144769817590714,0.0931294709444046,1093.4644775390625,-726.5323486328125,-16331.3173828125,-651.5148315429688,61.16617965698242,699.3904418945312,44.82515335083008,-2.455653667449951,3.110516309738159
1731876545457.0,0.0,0.0,-20.0,0.0,0.0,0.0,0.0,0.0,0.0,0.0,0.0,0.0,0.0,0.0,0.0,2.454986572265625,3.8314208984375,3.4086496829986572,-0.08769750595092773,0.006852436810731888,0.09206682443618774,1094.796630859375,-700.2317504882812,-16332.376953125,-658.5970458984375,51.4609260559082,691.4100952148438,44.81998825073242,-2.5445396900177,3.113480806350708
1731876545474.0,0.0,0.0,-20.0,0.0,0.0,0.0,0.0,0.0,0.0,0.0,0.0,0.0,0.0,0.0,0.0,2.361572265625,3.8348388671875,3.5146243572235107,-0.08863353729248047,0.005534259602427483,0.09095879644155502,1095.771728515625,-673.6000366210938,-16333.4326171875,-665.6265258789062,41.56158447265625,683.0889282226562,44.81480026245117,-2.632525682449341,3.115086793899536
1731876545490.0,0.0,0.0,-20.0,0.0,0.0,0.0,0.0,0.0,0.0,0.0,0.0,0.0,0.0,0.0,0.0,2.266998291015625,3.83697509765625,3.6192610263824463,-0.0895315408706665,0.0042337290942668915,0.0898418128490448,1096.38134765625,-646.6370849609375,-16334.4814453125,-672.3704223632812,31.79476547241211,674.7005615234375,44.80958557128906,-2.719569444656372,3.115309715270996
1731876545540.0,0.0,0.0,-20.0,0.0,0.0,0.0,0.0,0.0,0.0,0.0,0.0,0.0,0.0,0.0,0.0,2.073486328125,3.835968017578125,3.823070764541626,-0.09208957105875015,0.0003073788248002529,0.08632694184780121,1096.0941162109375,-591.4658203125,-16336.591796875,-691.5809326171875,2.308375597000122,648.3043212890625,44.79927062988281,-2.889759063720703,3.1104049682617188
1731876545557.0,0.0,0.0,-20.0,0.0,0.0,0.0,0.0,0.0,0.0,0.0,0.0,0.0,0.0,0.0,0.0,1.974578857421875,3.83282470703125,3.9221675395965576,-0.0929052084684372,-0.0010244925506412983,0.08508607000112534,1095.1971435546875,-563.2658081054688,-16337.6474609375,-697.7062377929688,-7.693808078765869,638.9855346679688,44.794193267822266,-2.972827434539795,3.1052794456481934
1731876545573.0,0.0,0.0,-20.0,0.0,0.0,0.0,0.0,0.0,0.0,0.0,0.0,0.0,0.0,0.0,0.0,1.8746337890625,3.828369140625,4.019792556762695,-0.09367185831069946,-0.00231762183830142,0.08385775983333588,1093.9259033203125,-534.7688598632812,-16338.6904296875,-703.4636840820312,-17.405044555664062,629.7610473632812,44.78912353515625,-3.054814338684082,3.098755359649658
1731876545590.0,0.0,0.0,-20.0,0.0,0.0,0.0,0.0,0.0,0.0,0.0,0.0,0.0,0.0,0.0,0.0,1.773712158203125,3.822662353515625,4.115968227386475,-0.09442410618066788,-0.0036293398588895798,0.0825880691409111,1092.2977294921875,-505.9921875,-16339.716796875,-709.1129760742188,-27.255878448486328,620.225830078125,44.784080505371094,-3.1357266902923584,3.090885877609253
1731876545623.0,0.0,0.0,-20.0,0.0,0.0,0.0,0.0,0.0,0.0,0.0,0.0,0.0,0.0,0.0,0.0,1.67181396484375,3.815643310546875,4.2106499671936035,-0.09584470093250275,-0.006239802576601505,0.0799899771809578,1090.2950439453125,-476.935791015625,-16340.72265625,-719.7814331054688,-46.8601188659668,600.7145385742188,44.779056549072266,-3.215524673461914,3.081624746322632
1731876545657.0,0.0,0.0,-20.0,0.0,0.0,0.0,0.0,0.0,0.0,0.0,0.0,0.0,0.0,0.0,0.0,1.46343994140625,3.79486083984375,4.392324924468994,-0.09717124700546265,-0.008867276832461357,0.07727861404418945,1084.365234375,-417.5146484375,-16342.744140625,-729.74365234375,-66.59211730957031,580.3525390625,44.76945877075195,-3.36938214302063,3.0565989017486572
1731876545673.0,0.0,0.0,-20.0,0.0,0.0,0.0,0.0,0.0,0.0,0.0,0.0,0.0,0.0,0.0,0.0,1.357940673828125,3.78253173828125,4.480794906616211,-0.09779702126979828,-0.010184615850448608,0.07588253915309906,1080.847412109375,-387.4274597167969,-16343.7177734375,-734.443115234375,-76.48516082763672,569.8681640625,44.76473617553711,-3.44449782371521,3.042046070098877
1731876545690.0,0.0,0.0,-20.0,0.0,0.0,0.0,0.0,0.0,0.0,0.0,0.0,0.0,0.0,0.0,0.0,1.2515869140625,3.768890380859375,4.567650318145752,-0.09838870167732239,-0.01148479524999857,0.07448048889636993,1076.955078125,-357.09478759765625,-16344.6669921875,-738.8865966796875,-86.24934387207031,559.3389282226562,44.760066986083984,-3.518366813659668,3.026123285293579
1731876545707.0,0.0,0.0,-20.0,0.0,0.0,0.0,0.0,0.0,0.0,0.0,0.0,0.0,0.0,0.0,0.0,1.144439697265625,3.753936767578125,4.652889251708984,-0.09897118806838989,-0.012824483215808868,0.07301048934459686,1072.688232421875,-326.5340881347656,-16345.5859375,-743.260986328125,-96.31023406982422,548.2994384765625,44.75546646118164,-3.5909762382507324,3.0088391304016113
1731876545740.0,0.0,0.0,-20.0,0.0,0.0,0.0,0.0,0.0,0.0,0.0,0.0,0.0,0.0,0.0,0.0,1.036468505859375,3.7376708984375,4.736436367034912,-0.09999921172857285,-0.015364757739007473,0.07015179097652435,1068.046875,-295.73651123046875,-16346.4765625,-750.9813232421875,-115.38736724853516,526.8309936523438,44.750938415527344,-3.6622633934020996,2.9901957511901855
1731876545773.0,0.0,0.0,-20.0,0.0,0.0,0.0,0.0,0.0,0.0,0.0,0.0,0.0,0.0,0.0,0.0,0.8170166015625,3.6983642578125,4.895196437835693,-0.10093428194522858,-0.01793067529797554,0.0671679675579071,1056.83056640625,-233.1353302001953,-16348.216796875,-758.0035400390625,-134.65707397460938,504.4228515625,44.74248504638672,-3.7983734607696533,2.946545362472534
1731876545773.0,0.0,0.0,-20.0,0.0,0.0,0.0,0.0,0.0,0.0,0.0,0.0,0.0,0.0,0.0,0.0,0.8170166015625,3.6983642578125,4.895196437835693,-0.10093428194522858,-0.01793067529797554,0.0671679675579071,1056.83056640625,-233.1353302001953,-16348.216796875,-758.0035400390625,-134.65707397460938,504.4228515625,44.74248504638672,-3.7983734607696533,2.946545362472534
1731876545823.0,0.0,0.0,-20.0,0.0,0.0,0.0,0.0,0.0,0.0,0.0,0.0,0.0,0.0,0.0,0.0,0.594970703125,3.653961181640625,5.047189712524414,-0.10212648659944534,-0.021741321310400963,0.06255341321229935,1044.159423828125,-169.78579711914062,-16349.8115234375,-766.9568481445312,-163.27455139160156,469.7681579589844,44.73439025878906,-3.9290506839752197,2.897705078125
1731876545840.0,0.0,0.0,-20.0,0.0,0.0,0.0,0.0,0.0,0.0,0.0,0.0,0.0,0.0,0.0,0.0,0.48248291015625,3.62835693359375,5.118777751922607,-0.10246612131595612,-0.022995341569185257,0.06098570674657822,1036.8525390625,-137.69009399414062,-16350.5791015625,-769.5075073242188,-172.69207763671875,457.994873046875,44.73069381713867,-3.990905284881592,2.8701515197753906
1731876545873.0,0.0,0.0,-20.0,0.0,0.0,0.0,0.0,0.0,0.0,0.0,0.0,0.0,0.0,0.0,0.0,0.25592041015625,3.573272705078125,5.256571292877197,-0.10306552797555923,-0.025506753474473953,0.0577707439661026,1021.1320190429688,-73.03913879394531,-16351.9853515625,-774.0089721679688,-191.55245971679688,433.8509216308594,44.7236328125,-4.110196590423584,2.8112146854400635
1731876545873.0,0.0,0.0,-20.0,0.0,0.0,0.0,0.0,0.0,0.0,0.0,0.0,0.0,0.0,0.0,0.0,0.25592041015625,3.573272705078125,5.256571292877197,-0.10306552797555923,-0.025506753474473953,0.0577707439661026,1021.1320190429688,-73.03913879394531,-16351.9853515625,-774.0089721679688,-191.55245971679688,433.8509216308594,44.7236328125,-4.110196590423584,2.8112146854400635
1731876545890.0,0.0,0.0,-20.0,0.0,0.0,0.0,0.0,0.0,0.0,0.0,0.0,0.0,0.0,0.0,0.0,0.141937255859375,3.5438232421875,5.322797775268555,-0.10332141816616058,-0.026749638840556145,0.056141696870326996,1012.7271118164062,-40.509979248046875,-16352.62109375,-775.9306640625,-200.88636779785156,421.6169738769531,44.72027587890625,-4.16763162612915,2.779876708984375
1731876545940.0,0.0,0.0,-20.0,0.0,0.0,0.0,0.0,0.0,0.0,0.0,0.0,0.0,0.0,0.0,0.0,-0.08767347037792206,3.479644775390625,5.447905540466309,-0.1039155125617981,-0.03043203242123127,0.051162198185920715,994.4094848632812,25.024417877197266,-16353.775390625,-780.3922119140625,-228.54067993164062,384.2215881347656,44.71414566040039,-4.276486396789551,2.7123491764068604
1731876545957.0,0.0,0.0,-20.0,0.0,0.0,0.0,0.0,0.0,0.0,0.0,0.0,0.0,0.0,0.0,0.0,-0.20319946110248566,3.444915771484375,5.506728649139404,-0.10405364632606506,-0.03162531182169914,0.04949789121747017,984.49658203125,58.000736236572266,-16354.2919921875,-781.4295654296875,-237.50205993652344,371.72283935546875,44.71138381958008,-4.3278374671936035,2.676189661026001
1731876545991.0,0.0,0.0,-20.0,0.0,0.0,0.0,0.0,0.0,0.0,0.0,0.0,0.0,0.0,0.0,0.0,-0.4351438879966736,3.37164306640625,5.618749618530273,-0.10424907505512238,-0.03405517339706421,0.04602879658341408,963.5809326171875,124.21488952636719,-16355.1689453125,-782.897216796875,-255.75,345.6703796386719,44.706275939941406,-4.425761699676514,2.600301504135132
1731876545991.0,0.0,0.0,-20.0,0.0,0.0,0.0,0.0,0.0,0.0,0.0,0.0,0.0,0.0,0.0,0.0,-0.4351438879966736,3.37164306640625,5.618749618530273,-0.10424907505512238,-0.03405517339706421,0.04602879658341408,963.5809326171875,124.21488952636719,-16355.1689453125,-782.897216796875,-255.75,345.6703796386719,44.706275939941406,-4.425761699676514,2.600301504135132
1731876546008.0,0.0,0.0,-20.0,0.0,0.0,0.0,0.0,0.0,0.0,0.0,0.0,0.0,0.0,0.0,0.0,-0.5514954328536987,3.33306884765625,5.671919822692871,-0.1043010801076889,-0.035234078764915466,0.044305793941020966,952.5693969726562,157.43353271484375,-16355.52734375,-783.2877807617188,-264.6034240722656,332.7308654785156,44.70393753051758,-4.472297191619873,2.560572624206543
1731876546058.0,0.0,0.0,-20.0,0.0,0.0,0.0,0.0,0.0,0.0,0.0,0.0,0.0,0.0,0.0,0.0,-0.7848854064941406,3.25079345703125,5.77062463760376,-0.10428228229284286,-0.03873590752482414,0.03902615234255791,929.0812377929688,224.07357788085938,-16356.1025390625,-783.1466064453125,-290.9017028808594,293.0814208984375,44.69991683959961,-4.558933734893799,2.4766485691070557
1731876546074.0,0.0,0.0,-20.0,0.0,0.0,0.0,0.0,0.0,0.0,0.0,0.0,0.0,0.0,0.0,0.0,-0.9018244743347168,3.20709228515625,5.816065311431885,-0.10421925783157349,-0.03985276445746422,0.03728912025690079,916.6044311523438,257.4664611816406,-16356.3134765625,-782.67333984375,-299.2891845703125,280.0365295410156,44.698238372802734,-4.598941326141357,2.432487726211548
1731876546091.0,0.0,0.0,-20.0,0.0,0.0,0.0,0.0,0.0,0.0,0.0,0.0,0.0,0.0,0.0,0.0,-1.0188313722610474,3.162139892578125,5.859622955322266,-0.10412601381540298,-0.04098360240459442,0.03550288826227188,903.7699584960938,290.8807678222656,-16356.46875,-781.9730834960938,-307.7816162109375,266.6221618652344,44.69671630859375,-4.637299537658691,2.3872296810150146
1731876546107.0,0.0,0.0,-20.0,0.0,0.0,0.0,0.0,0.0,0.0,0.0,0.0,0.0,0.0,0.0,0.0,-1.1358716487884521,3.115936279296875,5.901243209838867,-0.10400563478469849,-0.04208672419190407,0.033733025193214417,890.5775756835938,324.30645751953125,-16356.5634765625,-781.0690307617188,-316.06591796875,253.33070373535156,44.695350646972656,-4.6739583015441895,2.340888023376465
1731876546157.0,0.0,0.0,-20.0,0.0,0.0,0.0,0.0,0.0,0.0,0.0,0.0,0.0,0.0,0.0,0.0,-1.3698097467422485,3.01849365234375,5.9765214920043945,-0.10347194969654083,-0.045342035591602325,0.028343724086880684,862.7532958984375,391.1228942871094,-16356.59375,-777.0610961914062,-340.5129089355469,212.8577423095703,44.69331741333008,-4.74044132232666,2.2440621852874756
1731876546174.0,0.0,0.0,-20.0,0.0,0.0,0.0,0.0,0.0,0.0,0.0,0.0,0.0,0.0,0.0,0.0,-1.486614465713501,2.96734619140625,6.010332107543945,-0.10323294252157211,-0.04642080143094063,0.026499846950173378,848.1474609375,424.48687744140625,-16356.5244140625,-775.2662353515625,-348.6142883300781,199.01046752929688,44.692630767822266,-4.770368576049805,2.1936800479888916
1731876546191.0,0.0,0.0,-20.0,0.0,0.0,0.0,0.0,0.0,0.0,0.0,0.0,0.0,0.0,0.0,0.0,-1.603277564048767,2.915008544921875,6.042163848876953,-0.10296054184436798,-0.04750172793865204,0.02462156116962433,833.2010498046875,457.8118896484375,-16356.39453125,-773.2205200195312,-356.7319030761719,184.90478515625,44.692108154296875,-4.798531532287598,2.1423234939575195
1731876546207.0,0.0,0.0,-20.0,0.0,0.0,0.0,0.0,0.0,0.0,0.0,0.0,0.0,0.0,0.0,0.0,-1.719759225845337,2.861419677734375,6.071983337402344,-0.10267052054405212,-0.04852714389562607,0.022810285910964012,817.896484375,491.0863952636719,-16356.201171875,-771.04248046875,-364.4326477050781,171.30233764648438,44.69174575805664,-4.8248982429504395,2.089958429336548
1731876546241.0,0.0,0.0,-20.0,0.0,0.0,0.0,0.0,0.0,0.0,0.0,0.0,0.0,0.0,0.0,0.0,-1.8360319137573242,2.806640625,6.099868297576904,-0.10200217366218567,-0.05055318400263786,0.01914263144135475,802.2512817382812,524.302490234375,-16355.9453125,-766.0233154296875,-379.64794921875,143.7587127685547,44.69154739379883,-4.849522590637207,2.0366437435150146
1731876546275.0,0.0,0.0,-20.0,0.0,0.0,0.0,0.0,0.0,0.0,0.0,0.0,0.0,0.0,0.0,0.0,-2.0671546459198,2.691070556640625,6.145513534545898,-0.10119596868753433,-0.052584804594516754,0.015338042750954628,769.2415161132812,590.332763671875,-16355.28125,-759.9688110351562,-394.9051513671875,115.1867446899414,44.692054748535156,-4.8900628089904785,1.9255075454711914
1731876546291.0,0.0,0.0,-20.0,0.0,0.0,0.0,0.0,0.0,0.0,0.0,0.0,0.0,0.0,0.0,0.0,-2.182196617126465,2.631500244140625,6.165333271026611,-0.10077255964279175,-0.05352667719125748,0.013527927920222282,752.2254638671875,623.2007446289062,-16354.8544921875,-756.7890625,-401.978515625,101.59300994873047,44.69254684448242,-4.907612323760986,1.8685857057571411
1731876546291.0,0.0,0.0,-20.0,0.0,0.0,0.0,0.0,0.0,0.0,0.0,0.0,0.0,0.0,0.0,0.0,-2.182196617126465,2.631500244140625,6.165333271026611,-0.10077255964279175,-0.05352667719125748,0.013527927920222282,752.2254638671875,623.2007446289062,-16354.8544921875,-756.7890625,-401.978515625,101.59300994873047,44.69254684448242,-4.907612323760986,1.8685857057571411
1731876546341.0,0.0,0.0,-20.0,0.0,0.0,0.0,0.0,0.0,0.0,0.0,0.0,0.0,0.0,0.0,0.0,-2.411105155944824,2.509002685546875,6.199190139770508,-0.09930761903524399,-0.05633120238780975,0.007947715930640697,717.2319946289062,688.6027221679688,-16353.802734375,-745.7875366210938,-423.0401306152344,59.68633270263672,44.69397735595703,-4.9374260902404785,1.7522542476654053
1731876546357.0,0.0,0.0,-20.0,0.0,0.0,0.0,0.0,0.0,0.0,0.0,0.0,0.0,0.0,0.0,0.0,-2.5243897438049316,2.44488525390625,6.211080074310303,-0.09875916689634323,-0.05724429711699486,0.006064265500754118,698.9144287109375,720.9708862304688,-16353.201171875,-741.668701171875,-429.8973693847656,45.5418586730957,44.695133209228516,-4.947950839996338,1.6920688152313232
1731876546374.0,0.0,0.0,-20.0,0.0,0.0,0.0,0.0,0.0,0.0,0.0,0.0,0.0,0.0,0.0,0.0,-2.6371426582336426,2.379669189453125,6.220983982086182,-0.09818311035633087,-0.05814138054847717,0.004179117735475302,680.2821044921875,753.1871337890625,-16352.533203125,-737.3425903320312,-436.63433837890625,31.384639739990234,44.696434020996094,-4.956653118133545,1.6311169862747192
1731876546391.0,0.0,0.0,-20.0,0.0,0.0,0.0,0.0,0.0,0.0,0.0,0.0,0.0,0.0,0.0,0.0,-2.749328136444092,2.3133544921875,6.2289042472839355,-0.09757508337497711,-0.059028562158346176,0.002279031090438366,661.3349609375,785.2412109375,-16351.8037109375,-732.7764282226562,-443.2969665527344,17.115232467651367,44.697879791259766,-4.963531017303467,1.5694109201431274
1731876546407.0,0.0,0.0,-20.0,0.0,0.0,0.0,0.0,0.0,0.0,0.0,0.0,0.0,0.0,0.0,0.0,-2.8609049320220947,2.24591064453125,6.234827518463135,-0.0969487875699997,-0.059886518865823746,0.0004058456979691982,642.0643920898438,817.1212158203125,-16351.0087890625,-728.072998046875,-449.7401123046875,3.047849416732788,44.699466705322266,-4.968570232391357,1.5069414377212524
1731876546457.0,0.0,0.0,-20.0,0.0,0.0,0.0,0.0,0.0,0.0,0.0,0.0,0.0,0.0,0.0,0.0,-3.0814085006713867,2.10675048828125,6.238656997680664,-0.09489969164133072,-0.06237214431166649,-0.005239835008978844,602.299560546875,880.1234741210938,-16349.251953125,-712.6845703125,-468.4068298339844,-39.35049057006836,44.70326614379883,-4.9714813232421875,1.3792215585708618
1731876546474.0,0.0,0.0,-20.0,0.0,0.0,0.0,0.0,0.0,0.0,0.0,0.0,0.0,0.0,0.0,0.0,-3.1902310848236084,2.035064697265625,6.236570358276367,-0.09415902942419052,-0.06317105889320374,-0.00713096559047699,581.8140258789062,911.2152709960938,-16348.2900390625,-707.122314453125,-474.4065856933594,-53.55263900756836,44.70547103881836,-4.969352722167969,1.3140285015106201
1731876546491.0,0.0,0.0,-20.0,0.0,0.0,0.0,0.0,0.0,0.0,0.0,0.0,0.0,0.0,0.0,0.0,-3.2982711791992188,1.962310791015625,6.232505798339844,-0.09339181333780289,-0.06395219266414642,-0.009020088240504265,561.0224609375,942.082763671875,-16347.267578125,-701.360595703125,-480.2727966308594,-67.73970794677734,44.707794189453125,-4.965388298034668,1.248176097869873
1731876546508.0,0.0,0.0,-20.0,0.0,0.0,0.0,0.0,0.0,0.0,0.0,0.0,0.0,0.0,0.0,0.0,-3.4054930210113525,1.8885498046875,6.226468563079834,-0.09260708093643188,-0.06470706313848495,-0.010886101052165031,539.9420166015625,972.7150268554688,-16346.1845703125,-695.4673461914062,-485.9417724609375,-81.75322723388672,44.71024703979492,-4.959591865539551,1.1817235946655273
1731876546542.0,0.0,0.0,-20.0,0.0,0.0,0.0,0.0,0.0,0.0,0.0,0.0,0.0,0.0,0.0,0.0,-3.511871099472046,1.81378173828125,6.218486309051514,-0.09091451019048691,-0.06620223820209503,-0.014711053110659122,518.5728759765625,1003.1046752929688,-16345.0390625,-682.75634765625,-497.17034912109375,-110.4781265258789,44.712806701660156,-4.951984405517578,1.1146801710128784
1731876546575.0,0.0,0.0,-20.0,0.0,0.0,0.0,0.0,0.0,0.0,0.0,0.0,0.0,0.0,0.0,0.0,-3.72003173828125,1.6593017578125,6.192317962646484,-0.0891789123415947,-0.06757345795631409,-0.018389785662293434,474.4189147949219,1062.5677490234375,-16342.623046875,-669.7222290039062,-507.4680480957031,-138.1049346923828,44.718685150146484,-4.927794456481934,0.977766752243042
1731876546592.0,0.0,0.0,-20.0,0.0,0.0,0.0,0.0,0.0,0.0,0.0,0.0,0.0,0.0,0.0,0.0,-3.82267427444458,1.580657958984375,6.176376819610596,-0.08825092017650604,-0.0682484358549118,-0.02026933804154396,451.9393310546875,1091.885498046875,-16341.3271484375,-662.7531127929688,-512.5370483398438,-152.2201385498047,44.72176742553711,-4.913028240203857,0.9085589647293091
1731876546608.0,0.0,0.0,-20.0,0.0,0.0,0.0,0.0,0.0,0.0,0.0,0.0,0.0,0.0,0.0,0.0,-3.924283504486084,1.50103759765625,6.158479690551758,-0.08731862902641296,-0.06888990849256516,-0.02210257574915886,429.17974853515625,1120.905517578125,-16339.9755859375,-655.7517700195312,-517.3544311523438,-165.98751831054688,44.72494888305664,-4.896439552307129,0.8388382196426392
1731876546641.0,0.0,0.0,-20.0,0.0,0.0,0.0,0.0,0.0,0.0,0.0,0.0,0.0,0.0,0.0,0.0,-4.024848461151123,1.4205322265625,6.138678073883057,-0.08539357781410217,-0.07010960578918457,-0.02573029324412346,406.16632080078125,1149.6248779296875,-16338.5693359375,-641.2948608398438,-526.51416015625,-193.23121643066406,44.72821807861328,-4.878071308135986,0.7686806917190552
1731876546674.0,0.0,0.0,-20.0,0.0,0.0,0.0,0.0,0.0,0.0,0.0,0.0,0.0,0.0,0.0,0.0,-4.2205491065979,1.255218505859375,6.089362621307373,-0.08335313946008682,-0.07126571238040924,-0.02937006764113903,358.906982421875,1205.505615234375,-16335.6484375,-625.971435546875,-535.1964111328125,-220.56546020507812,44.735355377197266,-4.832769870758057,0.6262317895889282
1731876546691.0,0.0,0.0,-20.0,0.0,0.0,0.0,0.0,0.0,0.0,0.0,0.0,0.0,0.0,0.0,0.0,-4.316646099090576,1.1712646484375,6.061872482299805,-0.08227276057004929,-0.07182712107896805,-0.031221037730574608,334.9053649902344,1232.9404296875,-16334.1103515625,-617.85791015625,-539.4124755859375,-234.46600341796875,44.73903274536133,-4.807474136352539,0.5544233322143555
1731876546691.0,0.0,0.0,-20.0,0.0,0.0,0.0,0.0,0.0,0.0,0.0,0.0,0.0,0.0,0.0,0.0,-4.316646099090576,1.1712646484375,6.061872482299805,-0.08227276057004929,-0.07182712107896805,-0.031221037730574608,334.9053649902344,1232.9404296875,-16334.1103515625,-617.85791015625,-539.4124755859375,-234.46600341796875,44.73903274536133,-4.807474136352539,0.5544233322143555
1731876546741.0,0.0,0.0,-20.0,0.0,0.0,0.0,0.0,0.0,0.0,0.0,0.0,0.0,0.0,0.0,0.0,-4.505113124847412,1.000885009765625,6.001169681549072,-0.0789647027850151,-0.07335423678159714,-0.0366002582013607,286.1932678222656,1286.735107421875,-16330.8857421875,-593.0148315429688,-550.8809204101562,-274.8632507324219,44.746559143066406,-4.75156307220459,0.40978559851646423
1731876546758.0,0.0,0.0,-20.0,0.0,0.0,0.0,0.0,0.0,0.0,0.0,0.0,0.0,0.0,0.0,0.0,-4.596187591552734,0.91375732421875,5.9660258293151855,-0.0778304859995842,-0.07381769269704819,-0.03835423290729523,261.28216552734375,1312.7254638671875,-16329.236328125,-584.4970092773438,-554.3614501953125,-288.035400390625,44.75057601928711,-4.719396591186523,0.33665117621421814
1731876546791.0,0.0,0.0,-20.0,0.0,0.0,0.0,0.0,0.0,0.0,0.0,0.0,0.0,0.0,0.0,0.0,-4.774332523345947,0.7373046875,5.890288352966309,-0.07548573613166809,-0.07468894124031067,-0.041849665343761444,210.82998657226562,1363.55078125,-16325.80078125,-566.8882446289062,-560.9044189453125,-314.28564453125,44.75870132446289,-4.649995803833008,0.18963678181171417
1731876546791.0,0.0,0.0,-20.0,0.0,0.0,0.0,0.0,0.0,0.0,0.0,0.0,0.0,0.0,0.0,0.0,-4.774332523345947,0.7373046875,5.890288352966309,-0.07548573613166809,-0.07468894124031067,-0.041849665343761444,210.82998657226562,1363.55078125,-16325.80078125,-566.8882446289062,-560.9044189453125,-314.28564453125,44.75870132446289,-4.649995803833008,0.18963678181171417
1731876546808.0,0.0,0.0,-20.0,0.0,0.0,0.0,0.0,0.0,0.0,0.0,0.0,0.0,0.0,0.0,0.0,-4.861323833465576,0.647979736328125,5.849686622619629,-0.0742664784193039,-0.075098916888237,-0.04360261559486389,185.28892517089844,1388.3626708984375,-16324.0185546875,-557.7317504882812,-563.9832763671875,-327.4500732421875,44.76280975341797,-4.612760066986084,0.1157723143696785
1731876546858.0,0.0,0.0,-20.0,0.0,0.0,0.0,0.0,0.0,0.0,0.0,0.0,0.0,0.0,0.0,0.0,-5.029570579528809,0.466705322265625,5.761143684387207,-0.07051269710063934,-0.07619421929121017,-0.04874853789806366,133.4551239013672,1436.33544921875,-16320.3720703125,-529.5413208007812,-572.2088623046875,-366.0953063964844,44.77122116088867,-4.531750679016113,-0.03272994980216026
1731876546874.0,0.0,0.0,-20.0,0.0,0.0,0.0,0.0,0.0,0.0,0.0,0.0,0.0,0.0,0.0,0.0,-5.110724449157715,0.374786376953125,5.713215351104736,-0.06923610717058182,-0.07651370018720627,-0.05041893199086189,107.17118072509766,1459.4674072265625,-16318.515625,-519.954345703125,-574.6080932617188,-378.6397399902344,44.775508880615234,-4.487998008728027,-0.10732854902744293
1731876546891.0,0.0,0.0,-20.0,0.0,0.0,0.0,0.0,0.0,0.0,0.0,0.0,0.0,0.0,0.0,0.0,-5.190347671508789,0.28228759765625,5.663542747497559,-0.06790687888860703,-0.07681988924741745,-0.05211838707327843,80.72115325927734,1482.1572265625,-16316.62109375,-509.97198486328125,-576.9075317382812,-391.4024353027344,44.779788970947266,-4.44264554977417,-0.18202440440654755
1731876546908.0,0.0,0.0,-20.0,0.0,0.0,0.0,0.0,0.0,0.0,0.0,0.0,0.0,0.0,0.0,0.0,-5.268374919891357,0.189178466796875,5.612090587615967,-0.06657295674085617,-0.07710114121437073,-0.05378479138016701,54.09638214111328,1504.38671875,-16314.697265625,-499.95440673828125,-579.0197143554688,-403.9169006347656,44.784061431884766,-4.395668029785156,-0.256831556558609
1731876546941.0,0.0,0.0,-20.0,0.0,0.0,0.0,0.0,0.0,0.0,0.0,0.0,0.0,0.0,0.0,0.0,-5.344794273376465,0.095489501953125,5.558892726898193,-0.06385969370603561,-0.0775972306728363,-0.0570601187646389,27.305662155151367,1526.1514892578125,-16312.7431640625,-479.5781555175781,-582.7453002929688,-428.5141906738281,44.78831100463867,-4.347098350524902,-0.33172568678855896
1731876546974.0,0.0,0.0,-20.0,0.0,0.0,0.0,0.0,0.0,0.0,0.0,0.0,0.0,0.0,0.0,0.0,-5.489552974700928,-0.09431257098913193,5.443664073944092,-0.06107035651803017,-0.07800782471895218,-0.06027790904045105,-26.9691162109375,1567.3609619140625,-16308.833984375,-458.6305847167969,-585.8287963867188,-452.6794128417969,44.7969856262207,-4.242381572723389,-0.48179274797439575
1731876546991.0,0.0,0.0,-20.0,0.0,0.0,0.0,0.0,0.0,0.0,0.0,0.0,0.0,0.0,0.0,0.0,-5.559385776519775,-0.18993747234344482,5.383516788482666,-0.05965781584382057,-0.07817967236042023,-0.06185320019721985,-54.31342697143555,1587.2308349609375,-16306.8447265625,-448.0225830078125,-587.1193237304688,-464.5096435546875,44.8012580871582,-4.187738418579102,-0.5568346977233887
1731876546991.0,0.0,0.0,-20.0,0.0,0.0,0.0,0.0,0.0,0.0,0.0,0.0,0.0,0.0,0.0,0.0,-5.559385776519775,-0.18993747234344482,5.383516788482666,-0.05965781584382057,-0.07817967236042023,-0.06185320019721985,-54.31342697143555,1587.2308349609375,-16306.8447265625,-448.0225830078125,-587.1193237304688,-464.5096435546875,44.8012580871582,-4.187738418579102,-0.5568346977233887
1731876547041.0,0.0,0.0,-20.0,0.0,0.0,0.0,0.0,0.0,0.0,0.0,0.0,0.0,0.0,0.0,0.0,-5.693841457366943,-0.38249707221984863,5.258244037628174,-0.05530688166618347,-0.0785667821764946,-0.06649173051118851,-109.37603759765625,1625.4661865234375,-16302.80078125,-415.3476257324219,-590.0264892578125,-499.3443908691406,44.80963134765625,-4.0739946365356445,-0.7068257927894592
1731876547058.0,0.0,0.0,-20.0,0.0,0.0,0.0,0.0,0.0,0.0,0.0,0.0,0.0,0.0,0.0,0.0,-5.756714820861816,-0.4796798825263977,5.191410064697266,-0.05381441116333008,-0.0786527767777443,-0.06801257282495499,-137.16514587402344,1643.333984375,-16300.80078125,-404.13934326171875,-590.6723022460938,-510.7657470703125,44.81383514404297,-4.01357889175415,-0.78171306848526
1731876547091.0,0.0,0.0,-20.0,0.0,0.0,0.0,0.0,0.0,0.0,0.0,0.0,0.0,0.0,0.0,0.0,-5.876955986022949,-0.6750532388687134,5.052929401397705,-0.050828903913497925,-0.07875736802816391,-0.07095346599817276,-193.03021240234375,1677.4818115234375,-16296.7568359375,-381.71856689453125,-591.457763671875,-532.8514404296875,44.8220100402832,-3.8885133266448975,-0.9311615228652954
1731876547091.0,0.0,0.0,-20.0,0.0,0.0,0.0,0.0,0.0,0.0,0.0,0.0,0.0,0.0,0.0,0.0,-5.876955986022949,-0.6750532388687134,5.052929401397705,-0.050828903913497925,-0.07875736802816391,-0.07095346599817276,-193.03021240234375,1677.4818115234375,-16296.7568359375,-381.71856689453125,-591.457763671875,-532.8514404296875,44.8220100402832,-3.8885133266448975,-0.9311615228652954
1731876547108.0,0.0,0.0,-20.0,0.0,0.0,0.0,0.0,0.0,0.0,0.0,0.0,0.0,0.0,0.0,0.0,-5.934296607971191,-0.7731891870498657,4.9813337326049805,-0.049298256635665894,-0.07877747714519501,-0.07241085171699524,-221.0903778076172,1693.753662109375,-16294.7158203125,-370.2236022949219,-591.6087646484375,-543.7962646484375,44.82595443725586,-3.8239197731018066,-1.0056859254837036
1731876547158.0,0.0,0.0,-20.0,0.0,0.0,0.0,0.0,0.0,0.0,0.0,0.0,0.0,0.0,0.0,0.0,-6.041455268859863,-0.9703758955001831,4.831857681274414,-0.04463106021285057,-0.07870575785636902,-0.0766548290848732,-277.4703063964844,1724.1361083984375,-16290.666015625,-335.1735534667969,-591.0701904296875,-575.66796875,44.833648681640625,-3.6894595623016357,-1.1541047096252441
1731876547175.0,0.0,0.0,-20.0,0.0,0.0,0.0,0.0,0.0,0.0,0.0,0.0,0.0,0.0,0.0,0.0,-6.091213703155518,-1.0693439245224,4.754027843475342,-0.04304790496826172,-0.07863783836364746,-0.07802888751029968,-305.7662353515625,1738.2293701171875,-16288.662109375,-323.2842712402344,-590.5601196289062,-585.9869995117188,44.83737564086914,-3.619658946990967,-1.2279433012008667
1731876547191.0,0.0,0.0,-20.0,0.0,0.0,0.0,0.0,0.0,0.0,0.0,0.0,0.0,0.0,0.0,0.0,-6.138993263244629,-1.1684685945510864,4.674705982208252,-0.04145856946706772,-0.07854828983545303,-0.07937625050544739,-334.1059875488281,1751.7529296875,-16286.65625,-311.34857177734375,-589.8876342773438,-596.1055297851562,44.840980529785156,-3.5485947132110596,-1.3015501499176025
1731876547208.0,0.0,0.0,-20.0,0.0,0.0,0.0,0.0,0.0,0.0,0.0,0.0,0.0,0.0,0.0,0.0,-6.184784412384033,-1.2677215337753296,4.593916416168213,-0.03984593600034714,-0.07843603193759918,-0.08071116358041763,-362.4814453125,1764.703857421875,-16284.6513671875,-299.2378845214844,-589.0445556640625,-606.1305541992188,44.844451904296875,-3.4762957096099854,-1.3749090433120728
1731876547258.0,0.0,0.0,-20.0,0.0,0.0,0.0,0.0,0.0,0.0,0.0,0.0,0.0,0.0,0.0,0.0,-6.268387794494629,-1.466482162475586,4.4264960289001465,-0.03499653562903404,-0.07797302305698395,-0.08453705161809921,-419.3017883300781,1788.3157958984375,-16280.712890625,-262.81951904296875,-585.5674438476562,-634.8624877929688,44.85107421875,-3.3269717693328857,-1.5205607414245605
1731876547275.0,0.0,0.0,-20.0,0.0,0.0,0.0,0.0,0.0,0.0,0.0,0.0,0.0,0.0,0.0,0.0,-6.306202411651611,-1.5659042596817017,4.339961528778076,-0.03333604335784912,-0.07777257263660431,-0.08578410744667053,-447.7220458984375,1798.97802734375,-16278.7802734375,-250.34942626953125,-584.0620727539062,-644.2276611328125,44.854209899902344,-3.2500481605529785,-1.592808485031128
1731876547291.0,0.0,0.0,-20.0,0.0,0.0,0.0,0.0,0.0,0.0,0.0,0.0,0.0,0.0,0.0,0.0,-6.341923236846924,-1.6653108596801758,4.252039432525635,-0.031666092574596405,-0.07755006104707718,-0.08700679987668991,-476.1365051269531,1809.0380859375,-16276.8583984375,-237.8083038330078,-582.3910522460938,-653.4099731445312,44.85718536376953,-3.1720032691955566,-1.6647204160690308
1731876547308.0,0.0,0.0,-20.0,0.0,0.0,0.0,0.0,0.0,0.0,0.0,0.0,0.0,0.0,0.0,0.0,-6.375537395477295,-1.7646723985671997,4.162753582000732,-0.030029848217964172,-0.07731200754642487,-0.08817475289106369,-504.5366516113281,1818.4923095703125,-16274.9501953125,-225.52032470703125,-580.603271484375,-662.18115234375,44.86000061035156,-3.092867374420166,-1.736280083656311
1731876547341.0,0.0,0.0,-20.0,0.0,0.0,0.0,0.0,0.0,0.0,0.0,0.0,0.0,0.0,0.0,0.0,-6.407080173492432,-1.8639620542526245,4.07215690612793,-0.026684271171689034,-0.07676484435796738,-0.09047196805477142,-532.914794921875,1827.3516845703125,-16273.052734375,-200.3954620361328,-576.4942016601562,-679.4329223632812,44.862640380859375,-3.0126900672912598,-1.8074795007705688
1731876547375.0,0.0,0.0,-20.0,0.0,0.0,0.0,0.0,0.0,0.0,0.0,0.0,0.0,0.0,0.0,0.0,-6.459873676300049,-2.061816692352295,3.884416103363037,-0.023302854970097542,-0.0761311873793602,-0.09267263859510422,-589.4590454101562,1842.1270751953125,-16269.435546875,-175.00146484375,-571.7354736328125,-695.9596557617188,44.8675537109375,-2.847391128540039,-1.9479988813400269
1731876547391.0,0.0,0.0,-20.0,0.0,0.0,0.0,0.0,0.0,0.0,0.0,0.0,0.0,0.0,0.0,0.0,-6.483049392700195,-2.1604695320129395,3.7886645793914795,-0.021623976528644562,-0.07578708231449127,-0.09372097998857498,-617.650146484375,1848.590576171875,-16267.65625,-162.39329528808594,-569.1513061523438,-703.8325805664062,44.86973571777344,-2.7633044719696045,-2.0176241397857666
1731876547391.0,0.0,0.0,-20.0,0.0,0.0,0.0,0.0,0.0,0.0,0.0,0.0,0.0,0.0,0.0,0.0,-6.483049392700195,-2.1604695320129395,3.7886645793914795,-0.021623976528644562,-0.07578708231449127,-0.09372097998857498,-617.650146484375,1848.590576171875,-16267.65625,-162.39329528808594,-569.1513061523438,-703.8325805664062,44.86973571777344,-2.7633044719696045,-2.0176241397857666
1731876547441.0,0.0,0.0,-20.0,0.0,0.0,0.0,0.0,0.0,0.0,0.0,0.0,0.0,0.0,0.0,0.0,-6.522935390472412,-2.357081651687622,3.5935328006744385,-0.016472194343805313,-0.07461167126893997,-0.09675827622413635,-673.8285522460938,1859.662841796875,-16264.1650390625,-123.7040786743164,-560.3240966796875,-726.6422729492188,44.8735237121582,-2.592414617538452,-2.155541181564331
1731876547458.0,0.0,0.0,-20.0,0.0,0.0,0.0,0.0,0.0,0.0,0.0,0.0,0.0,0.0,0.0,0.0,-6.537591934204102,-2.4546356201171875,3.4930105209350586,-0.014740852639079094,-0.07417678833007812,-0.09771911054849625,-701.7000122070312,1863.6900634765625,-16262.5244140625,-110.70191955566406,-557.0582275390625,-733.8580322265625,44.875186920166016,-2.504854202270508,-2.223344087600708
1731876547475.0,0.0,0.0,-20.0,0.0,0.0,0.0,0.0,0.0,0.0,0.0,0.0,0.0,0.0,0.0,0.0,-6.55004358291626,-2.5518434047698975,3.3913521766662598,-0.01301167719066143,-0.0737227201461792,-0.09864908456802368,-729.4705200195312,1867.0859375,-16260.9140625,-97.71603393554688,-553.648193359375,-740.842041015625,44.87664794921875,-2.4164838790893555,-2.290644645690918
1731876547491.0,0.0,0.0,-20.0,0.0,0.0,0.0,0.0,0.0,0.0,0.0,0.0,0.0,0.0,0.0,0.0,-6.560290813446045,-2.6486761569976807,3.288586139678955,-0.011304182931780815,-0.07325509935617447,-0.09953849017620087,-757.1318359375,1869.8504638671875,-16259.3310546875,-84.8929672241211,-550.1364135742188,-747.5213623046875,44.877899169921875,-2.3273370265960693,-2.357431411743164
1731876547508.0,0.0,0.0,-20.0,0.0,0.0,0.0,0.0,0.0,0.0,0.0,0.0,0.0,0.0,0.0,0.0,-6.568358898162842,-2.7451095581054688,3.1847522258758545,-0.009536550380289555,-0.0727510005235672,-0.10042913258075714,-784.6768188476562,1871.9913330078125,-16257.7802734375,-71.61827850341797,-546.3507080078125,-754.2099609375,44.878944396972656,-2.2374539375305176,-2.423698902130127
1731876547558.0,0.0,0.0,-20.0,0.0,0.0,0.0,0.0,0.0,0.0,0.0,0.0,0.0,0.0,0.0,0.0,-6.575747966766357,-2.9361209869384766,2.972902536392212,-0.004333638586103916,-0.07114993035793304,-0.10287449508905411,-839.2302856445312,1873.778076171875,-16254.849609375,-32.54507064819336,-534.326904296875,-772.5743408203125,44.88044738769531,-2.054903507232666,-2.5540354251861572
1731876547575.0,0.0,0.0,-20.0,0.0,0.0,0.0,0.0,0.0,0.0,0.0,0.0,0.0,0.0,0.0,0.0,-6.575097560882568,-3.030616521835327,2.864982843399048,-0.002596285194158554,-0.07057651877403259,-0.10363278537988663,-866.2152099609375,1873.4326171875,-16253.47265625,-19.497770309448242,-530.0206298828125,-778.2689819335938,44.880897521972656,-1.9623380899429321,-2.6180756092071533
1731876547592.0,0.0,0.0,-20.0,0.0,0.0,0.0,0.0,0.0,0.0,0.0,0.0,0.0,0.0,0.0,0.0,-6.572227954864502,-3.1245546340942383,2.756110191345215,-0.0008645784109830856,-0.06998574733734131,-0.10435967892408371,-893.0385131835938,1872.4534912109375,-16252.1337890625,-6.492873668670654,-525.5840454101562,-783.7278442382812,44.881126403808594,-1.8691771030426025,-2.681525945663452
1731876547608.0,0.0,0.0,-20.0,0.0,0.0,0.0,0.0,0.0,0.0,0.0,0.0,0.0,0.0,0.0,0.0,-6.567144393920898,-3.217907428741455,2.646315813064575,0.0008800998330116272,-0.06937111169099808,-0.10506284236907959,-919.6922607421875,1870.8426513671875,-16250.83203125,6.609437465667725,-520.9682006835938,-789.008544921875,44.881134033203125,-1.7754545211791992,-2.744377851486206
1731876547642.0,0.0,0.0,-20.0,0.0,0.0,0.0,0.0,0.0,0.0,0.0,0.0,0.0,0.0,0.0,0.0,-6.559832572937012,-3.310641288757324,2.535619020462036,0.004349147900938988,-0.06809107959270477,-0.10637392848730087,-946.1669921875,1868.59619140625,-16249.5712890625,32.66154479980469,-511.3553161621094,-798.8546142578125,44.880916595458984,-1.6811974048614502,-2.8066165447235107
1731876547675.0,0.0,0.0,-20.0,0.0,0.0,0.0,0.0,0.0,0.0,0.0,0.0,0.0,0.0,0.0,0.0,-6.534481525421143,-3.4927916526794434,2.3100273609161377,0.007807033136487007,-0.06673826277256012,-0.10756523907184601,-998.1619262695312,1861.054443359375,-16247.326171875,58.62982177734375,-501.1958312988281,-807.8012084960938,44.87990951538086,-1.4902803897857666,-2.927922487258911
1731876547692.0,0.0,0.0,-20.0,0.0,0.0,0.0,0.0,0.0,0.0,0.0,0.0,0.0,0.0,0.0,0.0,-6.5185017585754395,-3.582782506942749,2.1960408687591553,0.009558351710438728,-0.06602367758750916,-0.10812440514564514,-1023.8460693359375,1856.3428955078125,-16246.265625,71.78199768066406,-495.8293762207031,-812.00048828125,44.879066467285156,-1.3941928148269653,-2.987600564956665
1731876547692.0,0.0,0.0,-20.0,0.0,0.0,0.0,0.0,0.0,0.0,0.0,0.0,0.0,0.0,0.0,0.0,-6.5185017585754395,-3.582782506942749,2.1960408687591553,0.009558351710438728,-0.06602367758750916,-0.10812440514564514,-1023.8460693359375,1856.3428955078125,-16246.265625,71.78199768066406,-495.8293762207031,-812.00048828125,44.879066467285156,-1.3941928148269653,-2.987600564956665
1731876547741.0,0.0,0.0,-20.0,0.0,0.0,0.0,0.0,0.0,0.0,0.0,0.0,0.0,0.0,0.0,0.0,-6.4799041748046875,-3.760432481765747,1.9658098220825195,0.014718398451805115,-0.06380221992731094,-0.10959754884243011,-1074.541748046875,1845.0311279296875,-16244.283203125,110.53329467773438,-479.1465148925781,-823.0635986328125,44.87668991088867,-1.2009050846099854,-3.1049439907073975
1731876547758.0,0.0,0.0,-20.0,0.0,0.0,0.0,0.0,0.0,0.0,0.0,0.0,0.0,0.0,0.0,0.0,-6.455289363861084,-3.8472256660461426,1.848997712135315,0.01644979976117611,-0.06301762908697128,-0.11003293842077255,-1099.305908203125,1837.8670654296875,-16243.4375,123.53589630126953,-473.25433349609375,-826.3333129882812,44.87521743774414,-1.1034612655639648,-3.161868095397949
1731876547775.0,0.0,0.0,-20.0,0.0,0.0,0.0,0.0,0.0,0.0,0.0,0.0,0.0,0.0,0.0,0.0,-6.428470134735107,-3.9331295490264893,1.7315365076065063,0.018195372074842453,-0.062206439673900604,-0.11044156551361084,-1123.81396484375,1830.076904296875,-16242.638671875,136.64491271972656,-467.16241455078125,-829.4020385742188,44.87351608276367,-1.0057575702667236,-3.218079090118408
1731876547792.0,0.0,0.0,-20.0,0.0,0.0,0.0,0.0,0.0,0.0,0.0,0.0,0.0,0.0,0.0,0.0,-6.399433135986328,-4.018104076385498,1.6134512424468994,0.01989820972084999,-0.06139542534947395,-0.11081060767173767,-1148.054443359375,1821.6571044921875,-16241.890625,149.43301391601562,-461.0718078613281,-832.1735229492188,44.87158966064453,-0.9078230857849121,-3.2735583782196045
1731876547809.0,0.0,0.0,-20.0,0.0,0.0,0.0,0.0,0.0,0.0,0.0,0.0,0.0,0.0,0.0,0.0,-6.368228912353516,-4.1021409034729,1.4947835206985474,0.02162047103047371,-0.06055518612265587,-0.11115385591983795,-1172.024658203125,1812.622802734375,-16241.1884765625,162.36697387695312,-454.76171875,-834.7512817382812,44.869441986083984,-0.8096938729286194,-3.328312873840332
1731876547859.0,0.0,0.0,-20.0,0.0,0.0,0.0,0.0,0.0,0.0,0.0,0.0,0.0,0.0,0.0,0.0,-6.297318458557129,-4.266299724578857,1.2553800344467163,0.02669927477836609,-0.057958394289016724,-0.11198724806308746,-1218.841552734375,1792.14501953125,-16240.015625,200.50814819335938,-435.2601318359375,-841.0099487304688,44.86453628540039,-0.6128374934196472,-3.434790849685669
1731876547875.0,0.0,0.0,-20.0,0.0,0.0,0.0,0.0,0.0,0.0,0.0,0.0,0.0,0.0,0.0,0.0,-6.257664680480957,-4.346348762512207,1.1347432136535645,0.028382062911987305,-0.05705800652503967,-0.11220329254865646,-1241.66748046875,1780.7178955078125,-16239.541015625,213.14566040039062,-428.49835205078125,-842.6323852539062,44.861785888671875,-0.5142033696174622,-3.486494302749634
1731876547892.0,0.0,0.0,-20.0,0.0,0.0,0.0,0.0,0.0,0.0,0.0,0.0,0.0,0.0,0.0,0.0,-6.215883255004883,-4.425313472747803,1.0136772394180298,0.030063003301620483,-0.0561382919549942,-0.11238857358694077,-1264.181640625,1768.68798828125,-16239.12109375,225.76931762695312,-421.5914001464844,-844.0238037109375,44.858821868896484,-0.4155273735523224,-3.5374228954315186
1731876547909.0,0.0,0.0,-20.0,0.0,0.0,0.0,0.0,0.0,0.0,0.0,0.0,0.0,0.0,0.0,0.0,-6.1719794273376465,-4.503162860870361,0.8922135233879089,0.031711213290691376,-0.0552164651453495,-0.11254020035266876,-1286.37548828125,1756.0576171875,-16238.75,238.14715576171875,-414.6686096191406,-845.1625366210938,44.855648040771484,-0.3168404996395111,-3.587566614151001
1731876547959.0,0.0,0.0,-20.0,0.0,0.0,0.0,0.0,0.0,0.0,0.0,0.0,0.0,0.0,0.0,0.0,-6.076010227203369,-4.65435266494751,0.6480100154876709,0.03665566071867943,-0.052329063415527344,-0.11281158775091171,-1329.4710693359375,1728.49072265625,-16238.2353515625,275.2793273925781,-392.9845886230469,-847.2006225585938,44.84873962402344,-0.11959760636091232,-3.6846256256103516
1731876547976.0,0.0,0.0,-20.0,0.0,0.0,0.0,0.0,0.0,0.0,0.0,0.0,0.0,0.0,0.0,0.0,-6.023975372314453,-4.727608680725098,0.5253666043281555,0.03828391432762146,-0.05133696272969246,-0.1128389984369278,-1350.3487548828125,1713.562744140625,-16238.09375,287.5072937011719,-385.5340270996094,-847.406494140625,44.84501266479492,-0.021130945533514023,-3.7315104007720947
1731876547992.0,0.0,0.0,-20.0,0.0,0.0,0.0,0.0,0.0,0.0,0.0,0.0,0.0,0.0,0.0,0.0,-5.9699015617370605,-4.799623966217041,0.4024919271469116,0.039889708161354065,-0.05033789947628975,-0.11283497512340546,-1370.87060546875,1698.0592041015625,-16238.00390625,299.5666198730469,-378.03118896484375,-847.376220703125,44.841094970703125,0.07719525694847107,-3.777574300765991
1731876548009.0,0.0,0.0,-20.0,0.0,0.0,0.0,0.0,0.0,0.0,0.0,0.0,0.0,0.0,0.0,0.0,-5.913817882537842,-4.870381832122803,0.2794205844402313,0.04150202125310898,-0.04931372031569481,-0.11279930174350739,-1391.0322265625,1681.9881591796875,-16237.9609375,311.67486572265625,-370.3397521972656,-847.1083374023438,44.83698654174805,0.17535176873207092,-3.8228166103363037
1731876548042.0,0.0,0.0,-20.0,0.0,0.0,0.0,0.0,0.0,0.0,0.0,0.0,0.0,0.0,0.0,0.0,-5.855721950531006,-4.939846038818359,0.15618573129177094,0.0446738637983799,-0.04723551496863365,-0.11263388395309448,-1410.8231201171875,1665.349365234375,-16237.96875,335.4950256347656,-354.7326965332031,-845.8660888671875,44.83268737792969,0.27330702543258667,-3.867222785949707
1731876548076.0,0.0,0.0,-20.0,0.0,0.0,0.0,0.0,0.0,0.0,0.0,0.0,0.0,0.0,0.0,0.0,-5.7300190925598145,-5.072394371032715,-0.09063720703125,0.04777893051505089,-0.04511649161577225,-0.11234486848115921,-1448.581298828125,1629.39013671875,-16238.29296875,358.81365966796875,-338.819091796875,-843.6956176757812,44.82371520996094,0.46806252002716064,-3.951655626296997
1731876548092.0,0.0,0.0,-20.0,0.0,0.0,0.0,0.0,0.0,0.0,0.0,0.0,0.0,0.0,0.0,0.0,-5.6642842292785645,-5.136618614196777,-0.214080810546875,0.0493287667632103,-0.0440262109041214,-0.1121516153216362,-1466.8736572265625,1610.5977783203125,-16238.5263671875,370.4527282714844,-330.6312255859375,-842.2443237304688,44.8189697265625,0.564963698387146,-3.992593765258789
1731876548109.0,0.0,0.0,-20.0,0.0,0.0,0.0,0.0,0.0,0.0,0.0,0.0,0.0,0.0,0.0,0.0,-5.596636772155762,-5.199434280395508,-0.3375244140625,0.050842463970184326,-0.042939670383930206,-0.11193026602268219,-1484.76318359375,1591.2666015625,-16238.8056640625,381.8204040527344,-322.471435546875,-840.58203125,44.81406021118164,0.6615261435508728,-4.032661437988281
1731876548142.0,0.0,0.0,-20.0,0.0,0.0,0.0,0.0,0.0,0.0,0.0,0.0,0.0,0.0,0.0,0.0,-5.527127265930176,-5.260839462280273,-0.4609375,0.053865883499383926,-0.04070281982421875,-0.11138807237148285,-1502.2490234375,1571.4107666015625,-16239.1318359375,404.5259094238281,-305.6729736328125,-836.5101928710938,44.808990478515625,0.7577283978462219,-4.071866035461426
1731876548176.0,0.0,0.0,-20.0,0.0,0.0,0.0,0.0,0.0,0.0,0.0,0.0,0.0,0.0,0.0,0.0,-5.379171371459961,-5.376645565032959,-0.70703125,0.056802134960889816,-0.038441251963377,-0.1107274517416954,-1535.221923828125,1529.1832275390625,-16240.078125,426.5767822265625,-288.68890380859375,-831.5490112304688,44.79859924316406,0.9481037855148315,-4.145668029785156
1731876548193.0,0.0,0.0,-20.0,0.0,0.0,0.0,0.0,0.0,0.0,0.0,0.0,0.0,0.0,0.0,0.0,-5.302516460418701,-5.432315826416016,-0.829803466796875,0.05827866867184639,-0.037268999963998795,-0.11034268140792847,-1551.0701904296875,1507.3160400390625,-16240.6162109375,437.66534423828125,-279.88543701171875,-828.659423828125,44.79319763183594,1.0425713062286377,-4.181239128112793
1731876548209.0,0.0,0.0,-20.0,0.0,0.0,0.0,0.0,0.0,0.0,0.0,0.0,0.0,0.0,0.0,0.0,-5.2240753173828125,-5.486441612243652,-0.95233154296875,0.05969665199518204,-0.0361202172935009,-0.10993857681751251,-1566.4776611328125,1484.946044921875,-16241.197265625,448.3142395019531,-271.2582092285156,-825.6246948242188,44.787662506103516,1.136507511138916,-4.215897083282471
1731876548242.0,0.0,0.0,-20.0,0.0,0.0,0.0,0.0,0.0,0.0,0.0,0.0,0.0,0.0,0.0,0.0,-5.143919944763184,-5.539046287536621,-1.07464599609375,0.06251420825719833,-0.033767469227313995,-0.10903026908636093,-1581.4505615234375,1462.093994140625,-16241.8203125,469.4737243652344,-253.58938598632812,-818.8034057617188,44.78200149536133,1.229944109916687,-4.249660491943359
1731876548276.0,0.0,0.0,-20.0,0.0,0.0,0.0,0.0,0.0,0.0,0.0,0.0,0.0,0.0,0.0,0.0,-4.975410461425781,-5.636753559112549,-1.317413330078125,0.06526234745979309,-0.03137722238898277,-0.10800089687108994,-1609.257568359375,1414.083984375,-16243.341796875,490.1119079589844,-235.63893127441406,-811.0729370117188,44.770565032958984,1.4139381647109985,-4.312410354614258
1731876548293.0,0.0,0.0,-20.0,0.0,0.0,0.0,0.0,0.0,0.0,0.0,0.0,0.0,0.0,0.0,0.0,-4.888711452484131,-5.683216571807861,-1.438201904296875,0.06662411987781525,-0.030155543237924576,-0.10743483155965805,-1622.4791259765625,1389.3917236328125,-16244.1552734375,500.338623046875,-226.4642791748047,-806.8218383789062,44.76470184326172,1.504980444908142,-4.342410087585449
1731876548293.0,0.0,0.0,-20.0,0.0,0.0,0.0,0.0,0.0,0.0,0.0,0.0,0.0,0.0,0.0,0.0,-4.888711452484131,-5.683216571807861,-1.438201904296875,0.06662411987781525,-0.030155543237924576,-0.10743483155965805,-1622.4791259765625,1389.3917236328125,-16244.1552734375,500.338623046875,-226.4642791748047,-806.8218383789062,44.76470184326172,1.504980444908142,-4.342410087585449
1731876548343.0,0.0,0.0,-20.0,0.0,0.0,0.0,0.0,0.0,0.0,0.0,0.0,0.0,0.0,0.0,0.0,-4.710534572601318,-5.77125358581543,-1.678436279296875,0.07055696845054626,-0.02647678554058075,-0.105573870241642,-1647.528076171875,1338.6629638671875,-16245.89453125,529.8738403320312,-198.8372802734375,-792.8462524414062,44.7526969909668,1.6850477457046509,-4.399611473083496
1731876548359.0,0.0,0.0,-20.0,0.0,0.0,0.0,0.0,0.0,0.0,0.0,0.0,0.0,0.0,0.0,0.0,-4.617702960968018,-5.811331272125244,-1.797149658203125,0.07182297110557556,-0.02524140290915966,-0.10489794611930847,-1658.9300537109375,1312.2462158203125,-16246.890625,539.38134765625,-189.55970764160156,-787.7702026367188,44.74671173095703,1.7733057737350464,-4.425748825073242
1731876548393.0,0.0,0.0,-20.0,0.0,0.0,0.0,0.0,0.0,0.0,0.0,0.0,0.0,0.0,0.0,0.0,-4.4276509284973145,-5.886470794677734,-2.03277587890625,0.07431760430335999,-0.02272711507976055,-0.10344579070806503,-1680.3045654296875,1258.1785888671875,-16248.970703125,558.11572265625,-170.677734375,-776.8646850585938,44.73455047607422,1.9475018978118896,-4.475198268890381
1731876548393.0,0.0,0.0,-20.0,0.0,0.0,0.0,0.0,0.0,0.0,0.0,0.0,0.0,0.0,0.0,0.0,-4.4276509284973145,-5.886470794677734,-2.03277587890625,0.07431760430335999,-0.02272711507976055,-0.10344579070806503,-1680.3045654296875,1258.1785888671875,-16248.970703125,558.11572265625,-170.677734375,-776.8646850585938,44.73455047607422,1.9475018978118896,-4.475198268890381
1731876548442.0,0.0,0.0,-20.0,0.0,0.0,0.0,0.0,0.0,0.0,0.0,0.0,0.0,0.0,0.0,0.0,-4.23192024230957,-5.954814910888672,-2.265716552734375,0.07786624133586884,-0.018948392942547798,-0.1010763868689537,-1699.74365234375,1202.5137939453125,-16251.162109375,584.7655029296875,-142.30001831054688,-759.0707397460938,44.722190856933594,2.1184115409851074,-4.520836353302002
1731876548459.0,0.0,0.0,-20.0,0.0,0.0,0.0,0.0,0.0,0.0,0.0,0.0,0.0,0.0,0.0,0.0,-4.130778789520264,-5.984917640686035,-2.380279541015625,0.0790289118885994,-0.01765294186770916,-0.10021380335092545,-1708.304931640625,1173.760009765625,-16252.3681640625,593.4970092773438,-132.5713348388672,-752.5928344726562,44.71610641479492,2.2017629146575928,-4.5411481857299805
1731876548493.0,0.0,0.0,-20.0,0.0,0.0,0.0,0.0,0.0,0.0,0.0,0.0,0.0,0.0,0.0,0.0,-3.9246275424957275,-6.039866924285889,-2.606903076171875,0.08126218616962433,-0.01507559884339571,-0.09842323511838913,-1723.931640625,1115.1634521484375,-16254.8427734375,610.2686157226562,-113.2158203125,-739.1459350585938,44.703887939453125,2.3656928539276123,-4.578839302062988
1731876548493.0,0.0,0.0,-20.0,0.0,0.0,0.0,0.0,0.0,0.0,0.0,0.0,0.0,0.0,0.0,0.0,-3.9246275424957275,-6.039866924285889,-2.606903076171875,0.08126218616962433,-0.01507559884339571,-0.09842323511838913,-1723.931640625,1115.1634521484375,-16254.8427734375,610.2686157226562,-113.2158203125,-739.1459350585938,44.703887939453125,2.3656928539276123,-4.578839302062988
1731876548543.0,0.0,0.0,-20.0,0.0,0.0,0.0,0.0,0.0,0.0,0.0,0.0,0.0,0.0,0.0,0.0,-3.713593006134033,-6.087825298309326,-2.829925537109375,0.08443343639373779,-0.011188393458724022,-0.09553892910480499,-1737.56884765625,1055.191650390625,-16257.396484375,634.0843505859375,-84.02340698242188,-717.4851684570312,44.691654205322266,2.525775194168091,-4.6126484870910645
1731876548560.0,0.0,0.0,-20.0,0.0,0.0,0.0,0.0,0.0,0.0,0.0,0.0,0.0,0.0,0.0,0.0,-3.605254888534546,-6.107606887817383,-2.938995361328125,0.085439033806324,-0.009892306290566921,-0.09452895075082779,-1743.1934814453125,1024.41162109375,-16258.7607421875,641.63623046875,-74.28995513916016,-709.9003295898438,44.68571853637695,2.6033754348754883,-4.626977443695068
1731876548593.0,0.0,0.0,-20.0,0.0,0.0,0.0,0.0,0.0,0.0,0.0,0.0,0.0,0.0,0.0,0.0,-3.385371208190918,-6.141876697540283,-3.15399169921875,0.0873793363571167,-0.00729231396690011,-0.09243115782737732,-1752.9371337890625,961.9463500976562,-16261.529296875,656.2076416015625,-54.764347076416016,-694.1461791992188,44.673927307128906,2.755445957183838,-4.652698993682861
1731876548593.0,0.0,0.0,-20.0,0.0,0.0,0.0,0.0,0.0,0.0,0.0,0.0,0.0,0.0,0.0,0.0,-3.385371208190918,-6.141876697540283,-3.15399169921875,0.0873793363571167,-0.00729231396690011,-0.09243115782737732,-1752.9371337890625,961.9463500976562,-16261.529296875,656.2076416015625,-54.764347076416016,-694.1461791992188,44.673927307128906,2.755445957183838,-4.652698993682861
1731876548643.0,0.0,0.0,-20.0,0.0,0.0,0.0,0.0,0.0,0.0,0.0,0.0,0.0,0.0,0.0,0.0,-3.1614456176757812,-6.169074535369873,-3.36456298828125,0.09012135118246078,-0.003358936868607998,-0.08907726407051086,-1760.669677734375,898.3392333984375,-16264.3330078125,676.7998657226562,-25.225187301635742,-668.9588623046875,44.66229248046875,2.9032180309295654,-4.674490928649902
1731876548659.0,0.0,0.0,-20.0,0.0,0.0,0.0,0.0,0.0,0.0,0.0,0.0,0.0,0.0,0.0,0.0,-3.0471713542938232,-6.1784467697143555,-3.46685791015625,0.09098447859287262,-0.0020470558665692806,-0.0879107341170311,-1763.3341064453125,865.8836059570312,-16265.8046875,683.2817993164062,-15.373127937316895,-660.1983642578125,44.65674591064453,2.9743363857269287,-4.682790279388428
1731876548693.0,0.0,0.0,-20.0,0.0,0.0,0.0,0.0,0.0,0.0,0.0,0.0,0.0,0.0,0.0,0.0,-2.816042423248291,-6.191854953765869,-3.667694091796875,0.09263475984334946,0.0005780449137091637,-0.08550475537776947,-1767.14599609375,800.2407836914062,-16268.7509765625,695.6752319335938,4.341043472290039,-642.1298217773438,44.64585494995117,3.113123893737793,-4.6963958740234375
1731876548693.0,0.0,0.0,-20.0,0.0,0.0,0.0,0.0,0.0,0.0,0.0,0.0,0.0,0.0,0.0,0.0,-2.816042423248291,-6.191854953765869,-3.667694091796875,0.09263475984334946,0.0005780449137091637,-0.08550475537776947,-1767.14599609375,800.2407836914062,-16268.7509765625,695.6752319335938,4.341043472290039,-642.1298217773438,44.64585494995117,3.113123893737793,-4.6963958740234375
1731876548709.0,0.0,0.0,-20.0,0.0,0.0,0.0,0.0,0.0,0.0,0.0,0.0,0.0,0.0,0.0,0.0,-2.699265956878662,-6.195908069610596,-3.76617431640625,0.09340725094079971,0.0018665026873350143,-0.08428890258073807,-1768.2982177734375,767.075439453125,-16270.224609375,701.4765014648438,14.017196655273438,-632.9989013671875,44.640525817871094,3.1807665824890137,-4.701709747314453
1731876548760.0,0.0,0.0,-20.0,0.0,0.0,0.0,0.0,0.0,0.0,0.0,0.0,0.0,0.0,0.0,0.0,-2.4627861976623535,-6.197163105010986,-3.9576416015625,0.09563512355089188,0.005842587910592556,-0.08039143681526184,-1768.6549072265625,699.9144287109375,-16273.2119140625,718.2075805664062,43.87709045410156,-603.7294311523438,44.63035202026367,3.311227321624756,-4.708235740661621
1731876548776.0,0.0,0.0,-20.0,0.0,0.0,0.0,0.0,0.0,0.0,0.0,0.0,0.0,0.0,0.0,0.0,-2.3431737422943115,-6.194336414337158,-4.050506591796875,0.09631640464067459,0.007150769233703613,-0.07906089723110199,-1767.8515625,665.9440307617188,-16274.7255859375,723.3239135742188,53.70136260986328,-593.7372436523438,44.625526428222656,3.3739752769470215,-4.709414482116699
1731876548793.0,0.0,0.0,-20.0,0.0,0.0,0.0,0.0,0.0,0.0,0.0,0.0,0.0,0.0,0.0,0.0,-2.2229461669921875,-6.189756393432617,-4.14190673828125,0.09696860611438751,0.008452184498310089,-0.07771341502666473,-1766.54931640625,631.7977294921875,-16276.228515625,728.2218627929688,63.47482681274414,-583.6177978515625,44.62081527709961,3.4354746341705322,-4.70958948135376
1731876548809.0,0.0,0.0,-20.0,0.0,0.0,0.0,0.0,0.0,0.0,0.0,0.0,0.0,0.0,0.0,0.0,-2.102142572402954,-6.183439254760742,-4.231781005859375,0.09759408235549927,0.009751270525157452,-0.07634450495243073,-1764.7535400390625,597.4863891601562,-16277.7177734375,732.9190673828125,73.23079681396484,-573.3374633789062,44.6162223815918,3.49568772315979,-4.708768844604492
1731876548860.0,0.0,0.0,-20.0,0.0,0.0,0.0,0.0,0.0,0.0,0.0,0.0,0.0,0.0,0.0,0.0,-1.8584586381912231,-6.164048194885254,-4.4052734375,0.09932210296392441,0.013664125464856625,-0.0720759853720665,-1759.24072265625,528.2698974609375,-16280.7080078125,745.8963012695312,102.61583709716797,-541.2814331054688,44.60765838623047,3.610905885696411,-4.702994346618652
1731876548876.0,0.0,0.0,-20.0,0.0,0.0,0.0,0.0,0.0,0.0,0.0,0.0,0.0,0.0,0.0,0.0,-1.7356847524642944,-6.150989532470703,-4.488800048828125,0.09983833134174347,0.01495022140443325,-0.07062472403049469,-1755.5279541015625,493.3945007324219,-16282.2021484375,749.7731323242188,112.27425384521484,-530.3826293945312,44.603694915771484,3.66586971282959,-4.698032379150391
1731876548893.0,0.0,0.0,-20.0,0.0,0.0,0.0,0.0,0.0,0.0,0.0,0.0,0.0,0.0,0.0,0.0,-1.6125168800354004,-6.136229515075684,-4.5706787109375,0.10033225268125534,0.016246309503912926,-0.06913767755031586,-1751.3316650390625,458.4044494628906,-16283.6787109375,753.482421875,122.00770568847656,-519.2151489257812,44.59988784790039,3.7195041179656982,-4.692070007324219
1731876548910.0,0.0,0.0,-20.0,0.0,0.0,0.0,0.0,0.0,0.0,0.0,0.0,0.0,0.0,0.0,0.0,-1.4889878034591675,-6.119762897491455,-4.650848388671875,0.10079628974199295,0.017533134669065475,-0.06763666123151779,-1746.64990234375,423.3091125488281,-16285.130859375,756.96728515625,131.67160034179688,-507.94268798828125,44.596229553222656,3.771772861480713,-4.685094356536865
1731876548943.0,0.0,0.0,-20.0,0.0,0.0,0.0,0.0,0.0,0.0,0.0,0.0,0.0,0.0,0.0,0.0,-1.3651349544525146,-6.101607799530029,-4.729278564453125,0.10163535177707672,0.020077768713235855,-0.06459525972604752,-1741.487548828125,388.1186828613281,-16286.5595703125,763.2684936523438,150.78147888183594,-485.1021423339844,44.592735290527344,3.822662115097046,-4.67711067199707
1731876548976.0,0.0,0.0,-20.0,0.0,0.0,0.0,0.0,0.0,0.0,0.0,0.0,0.0,0.0,0.0,0.0,-1.1160870790481567,-6.057333469390869,-4.87738037109375,0.10236073285341263,0.022595584392547607,-0.06148814782500267,-1728.8984375,317.3484802246094,-16289.4326171875,768.7160034179688,169.68995666503906,-461.76812744140625,44.58671569824219,3.9174933433532715,-4.65594482421875
1731876548993.0,0.0,0.0,-20.0,0.0,0.0,0.0,0.0,0.0,0.0,0.0,0.0,0.0,0.0,0.0,0.0,-0.9912793636322021,-6.032740116119385,-4.948699951171875,0.10268116742372513,0.02384532056748867,-0.05990896373987198,-1721.905029296875,281.877197265625,-16290.826171875,771.1224365234375,179.0753173828125,-449.9086608886719,44.5839729309082,3.9628021717071533,-4.643861293792725
1731876549010.0,0.0,0.0,-20.0,0.0,0.0,0.0,0.0,0.0,0.0,0.0,0.0,0.0,0.0,0.0,0.0,-0.8663304448127747,-6.006532669067383,-5.018157958984375,0.10297327488660812,0.025088487192988396,-0.05831326171755791,-1714.4520263671875,246.36187744140625,-16292.1904296875,773.316162109375,188.4113311767578,-437.9251403808594,44.58141326904297,4.00669002532959,-4.630783557891846
1731876549043.0,0.0,0.0,-20.0,0.0,0.0,0.0,0.0,0.0,0.0,0.0,0.0,0.0,0.0,0.0,0.0,-0.7412753701210022,-5.978724002838135,-5.08575439453125,0.10347636789083481,0.027576256543397903,-0.055044036358594894,-1706.5438232421875,210.81236267089844,-16293.5185546875,777.0942993164062,207.0941619873047,-413.3736877441406,44.57903289794922,4.049166202545166,-4.616710186004639
1731876549076.0,0.0,0.0,-20.0,0.0,0.0,0.0,0.0,0.0,0.0,0.0,0.0,0.0,0.0,0.0,0.0,-0.490870863199234,-5.915475845336914,-5.211395263671875,0.1038602814078331,0.03001083806157112,-0.05174361541867256,-1688.554931640625,139.61769104003906,-16296.1572265625,779.9774169921875,225.3775634765625,-388.58795166015625,44.57535171508789,4.126797199249268,-4.5833964347839355
1731876549093.0,0.0,0.0,-20.0,0.0,0.0,0.0,0.0,0.0,0.0,0.0,0.0,0.0,0.0,0.0,0.0,-0.3657035231590271,-5.881530284881592,-5.271240234375,0.10401031374931335,0.03122471645474434,-0.050059445202350616,-1678.8994140625,104.0234603881836,-16297.4208984375,781.1041870117188,234.49363708496094,-375.9400329589844,44.57380676269531,4.163407802581787,-4.565252780914307
1731876549093.0,0.0,0.0,-20.0,0.0,0.0,0.0,0.0,0.0,0.0,0.0,0.0,0.0,0.0,0.0,0.0,-0.3657035231590271,-5.881530284881592,-5.271240234375,0.10401031374931335,0.03122471645474434,-0.050059445202350616,-1678.8994140625,104.0234603881836,-16297.4208984375,781.1041870117188,234.49363708496094,-375.9400329589844,44.57380676269531,4.163407802581787,-4.565252780914307
1731876549143.0,0.0,0.0,-20.0,0.0,0.0,0.0,0.0,0.0,0.0,0.0,0.0,0.0,0.0,0.0,0.0,-0.11561191827058792,-5.8090691566467285,-5.38494873046875,0.10428524017333984,0.03479967638850212,-0.044943779706954956,-1658.286376953125,32.88998031616211,-16299.830078125,783.1688232421875,261.34112548828125,-337.52203369140625,44.57133102416992,4.232246398925781,-4.5259881019592285
1731876549160.0,0.0,0.0,-20.0,0.0,0.0,0.0,0.0,0.0,0.0,0.0,0.0,0.0,0.0,0.0,0.0,0.009124755859375,-5.769240379333496,-5.436737060546875,0.1043189987540245,0.03597244620323181,-0.04321296513080597,-1646.955322265625,-2.59605073928833,-16301.0126953125,783.42236328125,270.1484680175781,-324.5238342285156,44.57065200805664,4.262881278991699,-4.5038275718688965
1731876549193.0,0.0,0.0,-20.0,0.0,0.0,0.0,0.0,0.0,0.0,0.0,0.0,0.0,0.0,0.0,0.0,0.257904052734375,-5.685245990753174,-5.534088134765625,0.1042996272444725,0.0382876992225647,-0.039715833961963654,-1623.056640625,-73.38587188720703,-16303.244140625,783.27685546875,287.5357360839844,-298.2608337402344,44.56993865966797,4.319691181182861,-4.456569194793701
1731876549193.0,0.0,0.0,-20.0,0.0,0.0,0.0,0.0,0.0,0.0,0.0,0.0,0.0,0.0,0.0,0.0,0.257904052734375,-5.685245990753174,-5.534088134765625,0.1042996272444725,0.0382876992225647,-0.039715833961963654,-1623.056640625,-73.38587188720703,-16303.244140625,783.27685546875,287.5357360839844,-298.2608337402344,44.56993865966797,4.319691181182861,-4.456569194793701
1731876549210.0,0.0,0.0,-20.0,0.0,0.0,0.0,0.0,0.0,0.0,0.0,0.0,0.0,0.0,0.0,0.0,0.381927490234375,-5.641117572784424,-5.579559326171875,0.10424625873565674,0.039433710277080536,-0.0379440002143383,-1610.49951171875,-108.68425750732422,-16304.2919921875,782.8760986328125,296.1421203613281,-284.95458984375,44.56990051269531,4.345810413360596,-4.431478500366211
1731876549260.0,0.0,0.0,-20.0,0.0,0.0,0.0,0.0,0.0,0.0,0.0,0.0,0.0,0.0,0.0,0.0,0.628662109375,-5.547435283660889,-5.662017822265625,0.10391299426555634,0.042792171239852905,-0.03258659690618515,-1583.838134765625,-178.92337036132812,-16306.2841796875,780.373291015625,321.3637390136719,-244.72117614746094,44.57072448730469,4.391940116882324,-4.3773698806762695
1731876549277.0,0.0,0.0,-20.0,0.0,0.0,0.0,0.0,0.0,0.0,0.0,0.0,0.0,0.0,0.0,0.0,0.75128173828125,-5.497952938079834,-5.69891357421875,0.10374080389738083,0.043908264487981796,-0.03074890375137329,-1569.754150390625,-213.83816528320312,-16307.2255859375,779.0802001953125,329.7454528808594,-230.9203338623047,44.571590423583984,4.411903381347656,-4.348371505737305
1731876549293.0,0.0,0.0,-20.0,0.0,0.0,0.0,0.0,0.0,0.0,0.0,0.0,0.0,0.0,0.0,0.0,0.87347412109375,-5.4471435546875,-5.733612060546875,0.1035442054271698,0.044984105974435806,-0.028948962688446045,-1555.291259765625,-248.63648986816406,-16308.1171875,777.603759765625,337.82489013671875,-217.40301513671875,44.57267761230469,4.430339813232422,-4.318403720855713
1731876549310.0,0.0,0.0,-20.0,0.0,0.0,0.0,0.0,0.0,0.0,0.0,0.0,0.0,0.0,0.0,0.0,0.99517822265625,-5.395061492919922,-5.766082763671875,0.1033175140619278,0.04605542868375778,-0.02712772786617279,-1540.464599609375,-283.301025390625,-16308.958984375,775.9013061523438,345.8703918457031,-203.72576904296875,44.573978424072266,4.447235107421875,-4.287492275238037
1731876549343.0,0.0,0.0,-20.0,0.0,0.0,0.0,0.0,0.0,0.0,0.0,0.0,0.0,0.0,0.0,0.0,1.116424560546875,-5.341722011566162,-5.79632568359375,0.1027781292796135,0.04815942421555519,-0.02346317283809185,-1525.279052734375,-317.8403625488281,-16309.75,771.8506469726562,361.6711120605469,-176.20542907714844,44.575496673583984,4.462592124938965,-4.255641937255859
1731876549377.0,0.0,0.0,-20.0,0.0,0.0,0.0,0.0,0.0,0.0,0.0,0.0,0.0,0.0,0.0,0.0,1.356170654296875,-5.229071140289307,-5.84576416015625,0.10212332010269165,0.050213657319545746,-0.019765783101320267,-1493.2030029296875,-386.1534423828125,-16311.244140625,766.93310546875,377.09814453125,-148.43850708007812,44.579681396484375,4.485446453094482,-4.187208652496338
1731876549393.0,0.0,0.0,-20.0,0.0,0.0,0.0,0.0,0.0,0.0,0.0,0.0,0.0,0.0,0.0,0.0,1.475128173828125,-5.1709885597229,-5.8670654296875,0.10175107419490814,0.05122540891170502,-0.017898371443152428,-1476.6622314453125,-420.0567321777344,-16311.9111328125,764.1375732421875,384.6962890625,-134.41448974609375,44.582096099853516,4.494548797607422,-4.151607990264893
1731876549410.0,0.0,0.0,-20.0,0.0,0.0,0.0,0.0,0.0,0.0,0.0,0.0,0.0,0.0,0.0,0.0,1.593414306640625,-5.11176061630249,-5.886077880859375,0.10135468095541,0.05221192538738251,-0.01604636386036873,-1459.7939453125,-453.77374267578125,-16312.5283203125,761.1607055664062,392.1048889160156,-120.50614166259766,44.584720611572266,4.502101421356201,-4.115085601806641
1731876549444.0,0.0,0.0,-20.0,0.0,0.0,0.0,0.0,0.0,0.0,0.0,0.0,0.0,0.0,0.0,0.0,1.711029052734375,-5.051425457000732,-5.902801513671875,0.10046621412038803,0.05416595935821533,-0.012281674891710281,-1442.6085205078125,-487.3041076660156,-16313.0888671875,754.4884643554688,406.7794494628906,-92.23381042480469,44.58755111694336,4.5081095695495605,-4.077658653259277
1731876549476.0,0.0,0.0,-20.0,0.0,0.0,0.0,0.0,0.0,0.0,0.0,0.0,0.0,0.0,0.0,0.0,1.942657470703125,-4.925454139709473,-5.924896240234375,0.09949100762605667,0.05601142346858978,-0.008599239401519299,-1406.722900390625,-553.354736328125,-16314.1162109375,747.1647338867188,420.6386413574219,-64.57919311523438,44.59432601928711,4.512167453765869,-3.9982974529266357
1731876549493.0,0.0,0.0,-20.0,0.0,0.0,0.0,0.0,0.0,0.0,0.0,0.0,0.0,0.0,0.0,0.0,2.057342529296875,-4.860964775085449,-5.932525634765625,0.09895015507936478,0.056933317333459854,-0.006709626875817776,-1388.34912109375,-586.06494140625,-16314.5478515625,743.10302734375,427.56195068359375,-50.3884391784668,44.59800720214844,4.51191520690918,-3.957319736480713
1731876549493.0,0.0,0.0,-20.0,0.0,0.0,0.0,0.0,0.0,0.0,0.0,0.0,0.0,0.0,0.0,0.0,2.057342529296875,-4.860964775085449,-5.932525634765625,0.09895015507936478,0.056933317333459854,-0.006709626875817776,-1388.34912109375,-586.06494140625,-16314.5478515625,743.10302734375,427.56195068359375,-50.3884391784668,44.59800720214844,4.51191520690918,-3.957319736480713
1731876549543.0,0.0,0.0,-20.0,0.0,0.0,0.0,0.0,0.0,0.0,0.0,0.0,0.0,0.0,0.0,0.0,2.284149169921875,-4.72905158996582,-5.9407958984375,0.09717023372650146,0.059589192271232605,-0.001059116329997778,-1350.7598876953125,-650.7673950195312,-16315.251953125,729.7360229492188,447.5072326660156,-7.95382833480835,44.605953216552734,4.506765842437744,-3.872743606567383
1731876549560.0,0.0,0.0,-20.0,0.0,0.0,0.0,0.0,0.0,0.0,0.0,0.0,0.0,0.0,0.0,0.0,2.3953857421875,-4.660774230957031,-5.939239501953125,0.09652651101350784,0.06043641269207001,0.0008141994476318359,-1331.30126953125,-682.508056640625,-16315.552734375,724.9017944335938,453.8697509765625,6.1145339012146,44.610443115234375,4.500245094299316,-3.828334093093872
1731876549577.0,0.0,0.0,-20.0,0.0,0.0,0.0,0.0,0.0,0.0,0.0,0.0,0.0,0.0,0.0,0.0,2.50567626953125,-4.591622829437256,-5.935333251953125,0.09584611654281616,0.061279069632291794,0.0027148332446813583,-1311.5914306640625,-713.9827880859375,-16315.80078125,719.7921142578125,460.197998046875,20.388050079345703,44.615116119384766,4.492171764373779,-3.7830891609191895
1731876549593.0,0.0,0.0,-20.0,0.0,0.0,0.0,0.0,0.0,0.0,0.0,0.0,0.0,0.0,0.0,0.0,2.615020751953125,-4.52161169052124,-5.929046630859375,0.09514637291431427,0.06209545582532883,0.004594050347805023,-1291.634765625,-745.1914672851562,-16315.9990234375,714.537109375,466.3289489746094,34.500732421875,44.619972229003906,4.482522964477539,-3.7370095252990723
1731876549610.0,0.0,0.0,-20.0,0.0,0.0,0.0,0.0,0.0,0.0,0.0,0.0,0.0,0.0,0.0,0.0,2.723358154296875,-4.450777530670166,-5.92047119140625,0.09441479295492172,0.06290040910243988,0.006485744379460812,-1271.4412841796875,-776.1163940429688,-16316.1435546875,709.0430297851562,472.3740234375,48.70711135864258,44.62499237060547,4.471375942230225,-3.690109968185425
1731876549660.0,0.0,0.0,-20.0,0.0,0.0,0.0,0.0,0.0,0.0,0.0,0.0,0.0,0.0,0.0,0.0,2.93597412109375,-4.305972099304199,-5.894012451171875,0.09207629412412643,0.06519453227519989,0.012113501317799091,-1230.1544189453125,-836.819580078125,-16316.3076171875,691.481201171875,489.60260009765625,90.9708480834961,44.63575744628906,4.442777633666992,-3.5931336879730225
1731876549677.0,0.0,0.0,-20.0,0.0,0.0,0.0,0.0,0.0,0.0,0.0,0.0,0.0,0.0,0.0,0.0,3.0401611328125,-4.232089042663574,-5.876220703125,0.09124627709388733,0.0659223422408104,0.013981092721223831,-1209.0858154296875,-866.5712890625,-16316.330078125,685.2478637695312,495.068359375,104.99622344970703,44.64148712158203,4.425403118133545,-3.543095588684082
1731876549693.0,0.0,0.0,-20.0,0.0,0.0,0.0,0.0,0.0,0.0,0.0,0.0,0.0,0.0,0.0,0.0,3.14324951171875,-4.1575212478637695,-5.8560791015625,0.09040365368127823,0.06662160158157349,0.01581752859055996,-1187.8199462890625,-896.0122680664062,-16316.30078125,678.919921875,500.3197326660156,118.7876205444336,44.64735794067383,4.406488418579102,-3.4922921657562256
1731876549710.0,0.0,0.0,-20.0,0.0,0.0,0.0,0.0,0.0,0.0,0.0,0.0,0.0,0.0,0.0,0.0,3.2452392578125,-4.082308292388916,-5.83367919921875,0.0895170345902443,0.06731788069009781,0.017690513283014297,-1166.3680419921875,-925.142333984375,-16316.2236328125,672.261474609375,505.5486755371094,132.85350036621094,44.65336608886719,4.386102199554443,-3.440748691558838
1731876549760.0,0.0,0.0,-20.0,0.0,0.0,0.0,0.0,0.0,0.0,0.0,0.0,0.0,0.0,0.0,0.0,3.44451904296875,-3.9293839931488037,-5.77972412109375,0.08672813326120377,0.06927846372127533,0.02323703095316887,-1122.7454833984375,-982.0693359375,-16315.9560546875,651.3171997070312,520.2723999023438,174.50714111328125,44.66598892211914,4.339169979095459,-3.3347666263580322
1731876549777.0,0.0,0.0,-20.0,0.0,0.0,0.0,0.0,0.0,0.0,0.0,0.0,0.0,0.0,0.0,0.0,3.541748046875,-3.8517661094665527,-5.74822998046875,0.08573909848928452,0.06990042328834534,0.025093786418437958,-1100.601318359375,-1009.8485107421875,-16315.76953125,643.8896484375,524.9432373046875,188.4511260986328,44.67258834838867,4.312668323516846,-3.2803754806518555
1731876549794.0,0.0,0.0,-20.0,0.0,0.0,0.0,0.0,0.0,0.0,0.0,0.0,0.0,0.0,0.0,0.0,3.63775634765625,-3.7736241817474365,-5.714447021484375,0.08472946286201477,0.07050038874149323,0.026936739683151245,-1078.3057861328125,-1037.2811279296875,-16315.537109375,636.3074340820312,529.4489135742188,202.29147338867188,44.67929458618164,4.28467321395874,-3.225290536880493
1731876549810.0,0.0,0.0,-20.0,0.0,0.0,0.0,0.0,0.0,0.0,0.0,0.0,0.0,0.0,0.0,0.0,3.732513427734375,-3.6949872970581055,-5.678375244140625,0.08370736986398697,0.07107428461313248,0.028752129524946213,-1055.8670654296875,-1064.3580322265625,-16315.2607421875,628.6316528320312,533.7587890625,215.92481994628906,44.686100006103516,4.255182266235352,-3.1695244312286377
1731876549827.0,0.0,0.0,-20.0,0.0,0.0,0.0,0.0,0.0,0.0,0.0,0.0,0.0,0.0,0.0,0.0,3.82598876953125,-3.6158909797668457,-5.640045166015625,0.08264275640249252,0.07163858413696289,0.03059273585677147,-1033.2950439453125,-1091.0704345703125,-16314.94140625,620.6365356445312,537.9966430664062,229.74754333496094,44.6930046081543,4.22421932220459,-3.113096237182617
1731876549877.0,0.0,0.0,-20.0,0.0,0.0,0.0,0.0,0.0,0.0,0.0,0.0,0.0,0.0,0.0,0.0,4.00762939453125,-3.4559669494628906,-5.554534912109375,0.07937049120664597,0.07318134605884552,0.035962097346782684,-987.6510620117188,-1142.984130859375,-16314.21484375,596.062255859375,549.5825805664062,270.0707702636719,44.70724868774414,4.156344890594482,-2.99774169921875
1731876549893.0,0.0,0.0,-20.0,0.0,0.0,0.0,0.0,0.0,0.0,0.0,0.0,0.0,0.0,0.0,0.0,4.095794677734375,-3.375227928161621,-5.507415771484375,0.07823558151721954,0.07365545630455017,0.03773271664977074,-964.6043701171875,-1168.1849365234375,-16313.806640625,587.5392456054688,553.14306640625,283.3678894042969,44.71457290649414,4.119470596313477,-2.938870906829834
1731876549910.0,0.0,0.0,-20.0,0.0,0.0,0.0,0.0,0.0,0.0,0.0,0.0,0.0,0.0,0.0,0.0,4.18255615234375,-3.294166088104248,-5.4581298828125,0.07705764472484589,0.07411739230155945,0.03952518850564957,-941.463623046875,-1192.9852294921875,-16313.3662109375,578.6930541992188,556.6121215820312,296.8291320800781,44.721954345703125,4.0811848640441895,-2.879410982131958
1731876549944.0,0.0,0.0,-20.0,0.0,0.0,0.0,0.0,0.0,0.0,0.0,0.0,0.0,0.0,0.0,0.0,4.2679443359375,-3.2128021717071533,-5.4066162109375,0.07468496263027191,0.07496137171983719,0.04300571233034134,-918.2346801757812,-1217.394287109375,-16312.88671875,560.87451171875,562.9503173828125,322.9674072265625,44.72938537597656,4.0414347648620605,-2.8193717002868652
1731876549960.0,0.0,0.0,-20.0,0.0,0.0,0.0,0.0,0.0,0.0,0.0,0.0,0.0,0.0,0.0,0.0,4.350433349609375,-3.1308486461639404,-5.350921630859375,0.07344735413789749,0.07535883784294128,0.04475695267319679,-894.8355102539062,-1240.9769287109375,-16312.408203125,551.5802612304688,565.9352416992188,336.1189880371094,44.737022399902344,3.998784065246582,-2.758309841156006
1731876549994.0,0.0,0.0,-20.0,0.0,0.0,0.0,0.0,0.0,0.0,0.0,0.0,0.0,0.0,0.0,0.0,4.511077880859375,-2.96630859375,-5.233154296875,0.07092397660017014,0.07608579099178314,0.04820214956998825,-847.8512573242188,-1286.9052734375,-16311.3623046875,532.6300048828125,571.3945922851562,361.9919738769531,44.75238800048828,3.9092905521392822,-2.6346211433410645
1731876549994.0,0.0,0.0,-20.0,0.0,0.0,0.0,0.0,0.0,0.0,0.0,0.0,0.0,0.0,0.0,0.0,4.511077880859375,-2.96630859375,-5.233154296875,0.07092397660017014,0.07608579099178314,0.04820214956998825,-847.8512573242188,-1286.9052734375,-16311.3623046875,532.6300048828125,571.3945922851562,361.9919738769531,44.75238800048828,3.9092905521392822,-2.6346211433410645
1731876550044.0,0.0,0.0,-20.0,0.0,0.0,0.0,0.0,0.0,0.0,0.0,0.0,0.0,0.0,0.0,0.0,4.665802001953125,-2.8011107444763184,-5.106964111328125,0.06702223420143127,0.07700925320386887,0.05322781577706337,-800.6719360351562,-1331.1417236328125,-16310.193359375,503.32843017578125,578.3296508789062,399.7341003417969,44.7678108215332,3.8142430782318115,-2.508960008621216
1731876550060.0,0.0,0.0,-20.0,0.0,0.0,0.0,0.0,0.0,0.0,0.0,0.0,0.0,0.0,0.0,0.0,4.739349365234375,-2.7181622982025146,-5.038848876953125,0.06568577885627747,0.07727430760860443,0.05487222969532013,-776.9799194335938,-1352.1715087890625,-16309.611328125,493.29180908203125,580.3201904296875,412.08343505859375,44.775657653808594,3.7632505893707275,-2.445082902908325
1731876550077.0,0.0,0.0,-20.0,0.0,0.0,0.0,0.0,0.0,0.0,0.0,0.0,0.0,0.0,0.0,0.0,4.81134033203125,-2.6351544857025146,-4.96875,0.06433121860027313,0.07751807570457458,0.05650152266025543,-753.2693481445312,-1372.756103515625,-16309.0029296875,483.1192321777344,582.1508178710938,424.3192138671875,44.78348922729492,3.7109451293945312,-2.380786418914795
1731876550111.0,0.0,0.0,-20.0,0.0,0.0,0.0,0.0,0.0,0.0,0.0,0.0,0.0,0.0,0.0,0.0,4.95068359375,-2.4690630435943604,-4.82257080078125,0.06153331324458122,0.07794632762670517,0.05975385382771492,-705.8218383789062,-1412.5980224609375,-16307.724609375,462.1073303222656,585.366943359375,448.7438049316406,44.79906463623047,3.602348804473877,-2.251008987426758
1731876550111.0,0.0,0.0,-20.0,0.0,0.0,0.0,0.0,0.0,0.0,0.0,0.0,0.0,0.0,0.0,0.0,4.95068359375,-2.4690630435943604,-4.82257080078125,0.06153331324458122,0.07794632762670517,0.05975385382771492,-705.8218383789062,-1412.5980224609375,-16307.724609375,462.1073303222656,585.366943359375,448.7438049316406,44.79906463623047,3.602348804473877,-2.251008987426758
1731876550161.0,0.0,0.0,-20.0,0.0,0.0,0.0,0.0,0.0,0.0,0.0,0.0,0.0,0.0,0.0,0.0,5.08367919921875,-2.3030402660369873,-4.668609619140625,0.05723094567656517,0.07842127233743668,0.06447908282279968,-658.3880004882812,-1450.6229248046875,-16306.369140625,429.7970886230469,588.9337158203125,484.22967529296875,44.8144645690918,3.488548994064331,-2.1197776794433594
1731876550177.0,0.0,0.0,-20.0,0.0,0.0,0.0,0.0,0.0,0.0,0.0,0.0,0.0,0.0,0.0,0.0,5.14605712890625,-2.220121383666992,-4.5869140625,0.05577503517270088,0.07853502035140991,0.06600749492645264,-634.6953735351562,-1468.458740234375,-16305.712890625,418.8634033203125,589.7879638671875,495.7078552246094,44.822200775146484,3.428342580795288,-2.053441286087036
1731876550211.0,0.0,0.0,-20.0,0.0,0.0,0.0,0.0,0.0,0.0,0.0,0.0,0.0,0.0,0.0,0.0,5.265869140625,-2.0546562671661377,-4.4180908203125,0.05282849073410034,0.0786970853805542,0.06899844855070114,-587.4127807617188,-1502.714599609375,-16304.36328125,396.7352294921875,591.0050659179688,518.1695556640625,44.83743667602539,3.3042612075805664,-1.919942855834961
1731876550211.0,0.0,0.0,-20.0,0.0,0.0,0.0,0.0,0.0,0.0,0.0,0.0,0.0,0.0,0.0,0.0,5.265869140625,-2.0546562671661377,-4.4180908203125,0.05282849073410034,0.0786970853805542,0.06899844855070114,-587.4127807617188,-1502.714599609375,-16304.36328125,396.7352294921875,591.0050659179688,518.1695556640625,44.83743667602539,3.3042612075805664,-1.919942855834961
1731876550261.0,0.0,0.0,-20.0,0.0,0.0,0.0,0.0,0.0,0.0,0.0,0.0,0.0,0.0,0.0,0.0,5.379150390625,-1.8898468017578125,-4.2420654296875,0.048227906227111816,0.0787784606218338,0.07341033220291138,-540.312744140625,-1535.0994873046875,-16302.974609375,362.1854248046875,591.6161499023438,551.30224609375,44.85231018066406,3.175269365310669,-1.7854796648025513
1731876550278.0,0.0,0.0,-20.0,0.0,0.0,0.0,0.0,0.0,0.0,0.0,0.0,0.0,0.0,0.0,0.0,5.431427001953125,-1.8078986406326294,-4.1497802734375,0.04668554663658142,0.07876143604516983,0.07482286542654037,-516.8914794921875,-1550.0452880859375,-16302.3203125,350.60247802734375,591.4883422851562,561.91015625,44.859683990478516,3.107733726501465,-1.7178361415863037
1731876550294.0,0.0,0.0,-20.0,0.0,0.0,0.0,0.0,0.0,0.0,0.0,0.0,0.0,0.0,0.0,0.0,5.482025146484375,-1.7262074947357178,-4.0557861328125,0.04511308670043945,0.07872214168310165,0.0762300118803978,-493.5425109863281,-1564.510009765625,-16301.662109375,338.79351806640625,591.1932373046875,572.4776611328125,44.8669319152832,3.0390143394470215,-1.650034785270691
1731876550311.0,0.0,0.0,-20.0,0.0,0.0,0.0,0.0,0.0,0.0,0.0,0.0,0.0,0.0,0.0,0.0,5.530914306640625,-1.6447972059249878,-3.96014404296875,0.04353371635079384,0.07866095751523972,0.07761069387197495,-470.27294921875,-1578.4853515625,-16301.0029296875,326.9326477050781,590.7337646484375,582.8463745117188,44.87405776977539,2.9691503047943115,-1.5821001529693604
1731876550328.0,0.0,0.0,-20.0,0.0,0.0,0.0,0.0,0.0,0.0,0.0,0.0,0.0,0.0,0.0,0.0,5.578094482421875,-1.563689947128296,-3.86285400390625,0.04195381700992584,0.07857844978570938,0.07895980030298233,-447.08905029296875,-1591.970947265625,-16300.34375,315.06781005859375,590.1141357421875,592.97802734375,44.881046295166016,2.89813494682312,-1.514052391052246
1731876550378.0,0.0,0.0,-20.0,0.0,0.0,0.0,0.0,0.0,0.0,0.0,0.0,0.0,0.0,0.0,0.0,5.66534423828125,-1.4027620553970337,-3.66204833984375,0.037128668278455734,0.0781993716955185,0.08288916200399399,-401.0863952636719,-1616.9088134765625,-16299.0869140625,278.83154296875,587.2672729492188,622.4869995117188,44.894657135009766,2.7516419887542725,-1.3777332305908203
1731876550394.0,0.0,0.0,-20.0,0.0,0.0,0.0,0.0,0.0,0.0,0.0,0.0,0.0,0.0,0.0,0.0,5.705413818359375,-1.3230026960372925,-3.558624267578125,0.03551703691482544,0.0780315175652504,0.0841396301984787,-378.2852783203125,-1628.361083984375,-16298.4912109375,266.7284240722656,586.0067138671875,631.8778686523438,44.90126037597656,2.676213026046753,-1.3095277547836304
1731876550411.0,0.0,0.0,-20.0,0.0,0.0,0.0,0.0,0.0,0.0,0.0,0.0,0.0,0.0,0.0,0.0,5.7437744140625,-1.2436482906341553,-3.453765869140625,0.03385961800813675,0.07783803343772888,0.08539427071809769,-355.5992126464844,-1639.32373046875,-16297.9013671875,254.28140258789062,584.5537109375,641.300048828125,44.90768814086914,2.599759578704834,-1.241324543952942
1731876550428.0,0.0,0.0,-20.0,0.0,0.0,0.0,0.0,0.0,0.0,0.0,0.0,0.0,0.0,0.0,0.0,5.78033447265625,-1.1647276878356934,-3.347412109375,0.03221076726913452,0.07762493193149567,0.08661144226789474,-333.0364685058594,-1649.7706298828125,-16297.3251953125,241.89874267578125,582.9533081054688,650.4408569335938,44.9139404296875,2.5222280025482178,-1.1731421947479248
1731876550478.0,0.0,0.0,-20.0,0.0,0.0,0.0,0.0,0.0,0.0,0.0,0.0,0.0,0.0,0.0,0.0,5.846221923828125,-1.008685827255249,-3.129241943359375,0.027181658893823624,0.0768512561917305,0.09013806283473969,-288.4236145019531,-1668.596923828125,-16296.259765625,204.1307830810547,577.1431274414062,676.9253540039062,44.92593765258789,2.3631324768066406,-1.0370980501174927
1731876550494.0,0.0,0.0,-20.0,0.0,0.0,0.0,0.0,0.0,0.0,0.0,0.0,0.0,0.0,0.0,0.0,5.875457763671875,-0.931628406047821,-3.017486572265625,0.02551201730966568,0.07655423134565353,0.091248519718647,-266.391845703125,-1676.950439453125,-16295.77734375,191.5919952392578,574.9124755859375,685.2647094726562,44.93166732788086,2.2815945148468018,-0.96930330991745
1731876550511.0,0.0,0.0,-20.0,0.0,0.0,0.0,0.0,0.0,0.0,0.0,0.0,0.0,0.0,0.0,0.0,5.902923583984375,-0.8550955057144165,-2.904449462890625,0.023822998628020287,0.07623384147882462,0.09234193712472916,-244.50953674316406,-1684.7969970703125,-16295.310546875,178.90768432617188,572.5064086914062,693.4761352539062,44.93718719482422,2.1991047859191895,-0.9016468524932861
1731876550528.0,0.0,0.0,-20.0,0.0,0.0,0.0,0.0,0.0,0.0,0.0,0.0,0.0,0.0,0.0,0.0,5.928619384765625,-0.7791092395782471,-2.790191650390625,0.02210869826376438,0.07588843256235123,0.09342129528522491,-222.78314208984375,-1692.13671875,-16294.861328125,166.0334930419922,569.9124145507812,701.5819702148438,44.94249725341797,2.1157021522521973,-0.8341579437255859
1731876550578.0,0.0,0.0,-20.0,0.0,0.0,0.0,0.0,0.0,0.0,0.0,0.0,0.0,0.0,0.0,0.0,5.972503662109375,-0.629416823387146,-2.556915283203125,0.01700550504028797,0.07474162429571152,0.09645626693964005,-179.98110961914062,-1704.6717529296875,-16294.083984375,127.70916748046875,561.300048828125,724.374267578125,44.95248794555664,1.9452482461929321,-0.7000460028648376
1731876550595.0,0.0,0.0,-20.0,0.0,0.0,0.0,0.0,0.0,0.0,0.0,0.0,0.0,0.0,0.0,0.0,5.99078369140625,-0.5557540655136108,-2.43804931640625,0.015269245952367783,0.07431162148714066,0.09742902219295502,-158.91802978515625,-1709.892822265625,-16293.755859375,114.67008972167969,558.07080078125,731.6795043945312,44.9571533203125,1.8582937717437744,-0.6334932446479797
1731876550611.0,0.0,0.0,-20.0,0.0,0.0,0.0,0.0,0.0,0.0,0.0,0.0,0.0,0.0,0.0,0.0,6.007171630859375,-0.4827336072921753,-2.318115234375,0.013541276566684246,0.07386387139558792,0.09836740046739578,-138.03834533691406,-1714.5731201171875,-16293.455078125,101.6932601928711,554.708251953125,738.7266235351562,44.961578369140625,1.7705070972442627,-0.5672269463539124
1731876550628.0,0.0,0.0,-20.0,0.0,0.0,0.0,0.0,0.0,0.0,0.0,0.0,0.0,0.0,0.0,0.0,6.021759033203125,-0.41036853194236755,-2.1971435546875,0.011822178959846497,0.07339896261692047,0.09927169978618622,-117.3458251953125,-1718.7384033203125,-16293.177734375,88.78305053710938,551.2168579101562,745.5177612304688,44.965763092041016,1.681903600692749,-0.5012710094451904
1731876550678.0,0.0,0.0,-20.0,0.0,0.0,0.0,0.0,0.0,0.0,0.0,0.0,0.0,0.0,0.0,0.0,6.043426513671875,-0.2683381140232086,-1.95135498046875,0.006628163158893585,0.07187751680612564,0.10182838886976242,-76.7322769165039,-1724.9249267578125,-16292.7646484375,49.77665710449219,539.7909545898438,764.7182006835938,44.973411560058594,1.5016030073165894,-0.3707820475101471
1731876550695.0,0.0,0.0,-20.0,0.0,0.0,0.0,0.0,0.0,0.0,0.0,0.0,0.0,0.0,0.0,0.0,6.050506591796875,-0.19872303307056427,-1.826629638671875,0.004867060575634241,0.07132209837436676,0.10263583809137344,-56.825679779052734,-1726.9468994140625,-16292.6328125,36.551002502441406,535.619873046875,770.7820434570312,44.976863861083984,1.4099551439285278,-0.3063199520111084
1731876550711.0,0.0,0.0,-20.0,0.0,0.0,0.0,0.0,0.0,0.0,0.0,0.0,0.0,0.0,0.0,0.0,6.05572509765625,-0.1298518180847168,-1.701080322265625,0.003149118972942233,0.07076109945774078,0.10339464247226715,-37.1317138671875,-1728.436767578125,-16292.53125,23.64948081970215,531.4067993164062,776.4805297851562,44.98005294799805,1.3176205158233643,-0.24229568243026733
1731876550728.0,0.0,0.0,-20.0,0.0,0.0,0.0,0.0,0.0,0.0,0.0,0.0,0.0,0.0,0.0,0.0,6.05914306640625,-0.061721090227365494,-1.574676513671875,0.001417588908225298,0.07017649710178375,0.10413068532943726,-17.64943504333496,-1729.412109375,-16292.4609375,10.64591121673584,527.0165405273438,782.0081176757812,44.98297882080078,1.2245694398880005,-0.17871512472629547
1731876550761.0,0.0,0.0,-20.0,0.0,0.0,0.0,0.0,0.0,0.0,0.0,0.0,0.0,0.0,0.0,0.0,6.060699462890625,0.005648966878652573,-1.447540283203125,-0.0020588980987668037,0.06894480437040329,0.10552135854959488,1.6153489351272583,-1729.855712890625,-16292.4228515625,-15.462061882019043,517.7666625976562,792.451904296875,44.98563766479492,1.1308889389038086,-0.1156124621629715
1731876550795.0,0.0,0.0,-20.0,0.0,0.0,0.0,0.0,0.0,0.0,0.0,0.0,0.0,0.0,0.0,0.0,6.05426025390625,0.136444091796875,-1.189697265625,-0.005552174523472786,0.06762915849685669,0.10680150240659714,39.01679992675781,-1728.0196533203125,-16292.5703125,-41.69612121582031,507.8863525390625,802.0656127929688,44.990169525146484,0.9404078125953674,0.007999311201274395
1731876550812.0,0.0,0.0,-20.0,0.0,0.0,0.0,0.0,0.0,0.0,0.0,0.0,0.0,0.0,0.0,0.0,6.048309326171875,0.200592041015625,-1.059844970703125,-0.0072998967953026295,0.06694149971008301,0.10739777237176895,57.36012649536133,-1726.32177734375,-16292.6962890625,-54.821292877197266,502.72210693359375,806.5435791015625,44.992027282714844,0.8443166613578796,0.06893802434206009
1731876550828.0,0.0,0.0,-20.0,0.0,0.0,0.0,0.0,0.0,0.0,0.0,0.0,0.0,0.0,0.0,0.0,6.04046630859375,0.263916015625,-0.92938232421875,-0.009013842791318893,0.06624797731637955,0.1079537570476532,75.4677734375,-1724.083740234375,-16292.8603515625,-67.69281005859375,497.51385498046875,810.7189331054688,44.99360275268555,0.7476598024368286,0.12929216027259827
1731876550862.0,0.0,0.0,-20.0,0.0,0.0,0.0,0.0,0.0,0.0,0.0,0.0,0.0,0.0,0.0,0.0,6.030792236328125,0.326416015625,-0.798370361328125,-0.012503471225500107,0.06477709114551544,0.10899725556373596,93.33970642089844,-1721.322998046875,-16293.0615234375,-93.89947509765625,486.4676818847656,818.5554809570312,44.99489974975586,0.6504800319671631,0.18904517590999603
1731876550895.0,0.0,0.0,-20.0,0.0,0.0,0.0,0.0,0.0,0.0,0.0,0.0,0.0,0.0,0.0,0.0,6.001953125,0.446929931640625,-0.533935546875,-0.015922322869300842,0.06325876712799072,0.10990343987941742,127.80043029785156,-1713.09765625,-16293.693359375,-119.5746078491211,475.06524658203125,825.3607788085938,44.996681213378906,0.453748494386673,0.3052273094654083
1731876550912.0,0.0,0.0,-20.0,0.0,0.0,0.0,0.0,0.0,0.0,0.0,0.0,0.0,0.0,0.0,0.0,5.984832763671875,0.505889892578125,-0.401092529296875,-0.017656825482845306,0.062458883970975876,0.11031875014305115,144.6597442626953,-1708.2142333984375,-16294.064453125,-132.6005096435547,469.0582275390625,828.479736328125,44.99714279174805,0.35472339391708374,0.36229950189590454
1731876550912.0,0.0,0.0,-20.0,0.0,0.0,0.0,0.0,0.0,0.0,0.0,0.0,0.0,0.0,0.0,0.0,5.984832763671875,0.505889892578125,-0.401092529296875,-0.017656825482845306,0.062458883970975876,0.11031875014305115,144.6597442626953,-1708.2142333984375,-16294.064453125,-132.6005096435547,469.0582275390625,828.479736328125,44.99714279174805,0.35472339391708374,0.36229950189590454
1731876550961.0,0.0,0.0,-20.0,0.0,0.0,0.0,0.0,0.0,0.0,0.0,0.0,0.0,0.0,0.0,0.0,5.94500732421875,0.621002197265625,-0.1343994140625,-0.022772394120693207,0.05998188629746437,0.11136642843484879,177.57504272460938,-1696.8548583984375,-16294.9267578125,-171.0177764892578,450.456298828125,836.34765625,44.99723434448242,0.15550462901592255,0.4741670787334442
1731876550978.0,0.0,0.0,-20.0,0.0,0.0,0.0,0.0,0.0,0.0,0.0,0.0,0.0,0.0,0.0,0.0,5.92041015625,0.676177978515625,-0.00036285570240579545,-0.024477947503328323,0.05911625176668167,0.11165594309568405,193.35182189941406,-1689.8406982421875,-16295.4755859375,-183.82626342773438,443.95550537109375,838.5218505859375,44.99686813354492,0.05506029725074768,0.5281946659088135
1731876551012.0,0.0,0.0,-20.0,0.0,0.0,0.0,0.0,0.0,0.0,0.0,0.0,0.0,0.0,0.0,0.0,5.8658447265625,0.783660888671875,0.2683020830154419,-0.027849482372403145,0.057345155626535416,0.11213820427656174,224.08457946777344,-1674.28076171875,-16296.6875,-209.14605712890625,430.65478515625,842.1436157226562,44.995296478271484,-0.14672008156776428,0.633773148059845
1731876551012.0,0.0,0.0,-20.0,0.0,0.0,0.0,0.0,0.0,0.0,0.0,0.0,0.0,0.0,0.0,0.0,5.8658447265625,0.783660888671875,0.2683020830154419,-0.027849482372403145,0.057345155626535416,0.11213820427656174,224.08457946777344,-1674.28076171875,-16296.6875,-209.14605712890625,430.65478515625,842.1436157226562,44.995296478271484,-0.14672008156776428,0.633773148059845
1731876551062.0,0.0,0.0,-20.0,0.0,0.0,0.0,0.0,0.0,0.0,0.0,0.0,0.0,0.0,0.0,0.0,5.80401611328125,0.88720703125,0.5374788641929626,-0.032838352024555206,0.05457451939582825,0.11262649297714233,253.69094848632812,-1656.6502685546875,-16298.0556640625,-246.61183166503906,409.84765625,845.810546875,44.99262619018555,-0.3495049476623535,0.7358687520027161
