ts,linPos_x,linPos_y,linPos_z,linVel_x,linVel_y,linVel_z,linAcc_x,linAcc_y,linAcc_z,force_x,force_y,force_z,torque_x,torque_y,torque_z,euler_x,euler_y,euler_z,angVel_x,angVel_y,angVel_z,accelerometer_x,accelerometer_y,accelerometer_z,gyroscope_x,gyroscope_y,gyroscope_z,magnetometer_x,magnetometer_y,magnetometer_z
1731876899706.0,0.0,0.0,-20.0,0.0,0.0,0.0,0.0,0.0,0.0,0.0,0.0,0.0,0.0,0.0,0.0,0.0,0.0,0.0,0.0,0.0,0.0,32.00510787963867,-0.22515882551670074,-16344.591796875,77.63688659667969,28.92166519165039,81.78508758544922,45.256961822509766,-0.6408230662345886,0.6013364195823669
1731876899723.0,0.0,0.0,-20.0,0.0,0.0,0.0,0.0,0.0,0.0,0.0,0.0,0.0,0.0,0.0,0.0,0.0,0.0,0.0,0.0,0.0,0.0,158.94677734375,-165.31895446777344,-16503.87109375,95.10000610351562,-39.19679260253906,-10.701394081115723,45.167518615722656,-0.18771402537822723,0.653510332107544
1731876899756.0,0.0,0.0,-20.0,0.0,0.0,0.0,0.0,0.0,0.0,0.0,0.0,0.0,0.0,0.0,0.0,0.0,0.0,0.0,0.0,0.0,0.0,-101.89038848876953,76.72907257080078,-16402.3046875,28.1273193359375,21.64035987854004,64.83062744140625,44.73399353027344,-0.3226965069770813,-0.6308938264846802
1731876899790.0,0.0,0.0,-20.0,0.0,0.0,0.0,0.0,0.0,0.0,0.0,0.0,0.0,0.0,0.0,0.0,0.0,0.0,0.0,0.0,0.0,0.0,302.4259948730469,-6.27522611618042,-16361.8173828125,44.006370544433594,-207.40126037597656,124.17137145996094,44.590030670166016,0.22124435007572174,-0.06514572352170944
1731876899806.0,0.0,0.0,-20.0,0.0,0.0,0.0,0.0,0.0,0.0,0.0,0.0,0.0,0.0,0.0,0.0,0.0,0.0,0.0,0.0,0.0,0.0,-148.78445434570312,-289.0563049316406,-16325.8291015625,-18.90301513671875,-177.70114135742188,-51.7512092590332,44.93108367919922,-0.7606806755065918,-0.7669245600700378
1731876899823.0,0.0,0.0,-20.0,0.0,0.0,0.0,0.0,0.0,0.0,0.0,0.0,0.0,0.0,0.0,0.0,0.0,0.0,0.0,0.0,0.0,0.0,-29.532133102416992,25.736610412597656,-16134.990234375,81.94761657714844,-72.53266143798828,86.67404174804688,45.045101165771484,0.045123130083084106,0.35453373193740845
1731876899857.0,0.0,0.0,-20.0,0.0,0.0,0.0,0.0,0.0,0.0,0.0,0.0,0.0,0.0,0.0,0.0,0.0,0.0,0.0,0.0,0.0,0.0,-84.72100830078125,-61.30003356933594,-16249.1650390625,111.74526977539062,-49.57358169555664,-21.876054763793945,44.968502044677734,0.04908376932144165,-0.27991577982902527
1731876899873.0,0.0,0.0,-20.0,0.0,0.0,0.0,0.0,0.0,0.0,0.0,0.0,0.0,0.0,0.0,0.0,0.0,0.0,0.0,0.0,0.0,0.0,138.1245574951172,97.3663330078125,-16479.44140625,102.47876739501953,26.767854690551758,-45.07691192626953,44.96076202392578,-0.38908618688583374,-0.08136968314647675
1731876899907.0,0.0,0.0,-20.0,0.0,0.0,0.0,0.0,0.0,0.0,0.0,0.0,0.0,0.0,0.0,0.0,0.0,0.0,0.0,0.0,0.0,0.0,186.54408264160156,114.9798583984375,-16288.794921875,-111.65211486816406,-74.89989471435547,31.373188018798828,44.82421875,0.2626746892929077,0.6730093359947205
1731876899907.0,0.0,0.0,-20.0,0.0,0.0,0.0,0.0,0.0,0.0,0.0,0.0,0.0,0.0,0.0,0.0,0.0,0.0,0.0,0.0,0.0,0.0,186.54408264160156,114.9798583984375,-16288.794921875,-111.65211486816406,-74.89989471435547,31.373188018798828,44.82421875,0.2626746892929077,0.6730093359947205
1731876899923.0,0.0,0.0,-20.0,0.0,0.0,0.0,0.0,0.0,0.0,0.0,0.0,0.0,0.0,0.0,0.0,0.0,0.0,0.0,0.0,0.0,0.0,-14.885129928588867,-3.590639591217041,-16487.4921875,54.11871337890625,15.543205261230469,-48.226951599121094,44.98352813720703,-0.2743695080280304,-0.09251189976930618
1731876899973.0,0.0,0.0,-20.0,0.0,0.0,0.0,0.0,0.0,0.0,0.0,0.0,0.0,0.0,0.0,0.0,0.0,0.0,0.0,0.0,0.0,0.0,30.150564193725586,-71.9372329711914,-16371.314453125,65.98428344726562,-7.919286727905273,-15.747241973876953,44.81356430053711,0.196847066283226,0.20261257886886597
1731876899990.0,0.0,0.0,-20.0,0.0,0.0,0.0,0.0,0.0,0.0,0.0,0.0,0.0,0.0,0.0,0.0,0.0,0.0,0.0,0.0,0.0,0.0,-68.4523696899414,-48.736785888671875,-16307.8623046875,25.34059715270996,-13.050335884094238,-138.12388610839844,45.54566955566406,0.2478816658258438,-0.2371215522289276
1731876900007.0,0.0,0.0,-20.0,0.0,0.0,0.0,0.0,0.0,0.0,0.0,0.0,0.0,0.0,0.0,0.0,0.0,0.0,0.0,0.0,0.0,0.0,-181.34796142578125,51.22539138793945,-16287.6298828125,21.216739654541016,-11.759737968444824,-34.860084533691406,45.48454284667969,-0.14799991250038147,-0.48778972029685974
1731876900023.0,0.0,0.0,-20.0,0.0,0.0,0.0,0.0,0.0,0.0,0.0,0.0,0.0,0.0,0.0,0.0,0.0,0.0,0.0,0.0,0.0,0.0,-87.23751068115234,91.05587005615234,-16322.986328125,-54.29414367675781,148.04891967773438,54.601932525634766,44.817710876464844,-0.1495833694934845,-0.16059277951717377
1731876900057.0,0.0,0.0,-20.0,0.0,0.0,0.0,0.0,0.0,0.0,0.0,0.0,0.0,0.0,0.0,0.0,0.0,0.0,0.0,0.0,0.0,0.0,-56.37296676635742,-18.033246994018555,-16510.232421875,62.09061050415039,28.5277099609375,-23.25357437133789,44.61578369140625,-0.1372431218624115,0.3963540494441986
1731876900090.0,0.0,0.0,-20.0,0.0,0.0,0.0,0.0,0.0,0.0,0.0,0.0,0.0,0.0,0.0,0.0,0.0,0.0,0.0,0.0,0.0,0.0,46.559329986572266,43.92380142211914,-16396.388671875,16.783008575439453,9.428597450256348,-124.17178344726562,44.610931396484375,-0.054595015943050385,-0.07132939249277115
1731876900107.0,0.0,0.0,-20.0,0.0,0.0,0.0,0.0,0.0,0.0,0.0,0.0,0.0,0.0,0.0,0.0,0.0,0.0,0.0,0.0,0.0,0.0,24.119522094726562,-4.211875915527344,-16433.033203125,49.373626708984375,43.20018005371094,125.81742858886719,44.781124114990234,-0.027493106201291084,-0.5007901787757874
1731876900124.0,0.0,0.0,-20.0,0.0,0.0,0.0,0.0,0.0,0.0,0.0,0.0,0.0,0.0,0.0,0.0,0.0,0.0,0.0,0.0,0.0,0.0,42.207035064697266,27.42660140991211,-16240.1396484375,-58.907466888427734,19.267017364501953,68.15000915527344,45.4113655090332,0.365007221698761,0.04959561303257942
1731876900157.0,0.0,0.0,-20.0,0.0,0.0,0.0,0.0,0.0,0.0,0.0,0.0,0.0,0.0,0.0,0.0,0.0,0.0,0.0,0.0,0.0,0.0,-30.398426055908203,55.21049880981445,-16384.60546875,-54.15232467651367,-8.5006742477417,54.16845703125,45.40322494506836,0.6690259575843811,0.21960848569869995
1731876900190.0,0.0,0.0,-20.0,0.0,0.0,0.0,0.0,0.0,0.0,0.0,0.0,0.0,0.0,0.0,0.0,0.0,0.0,0.0,-0.03191670402884483,0.0,0.0,-170.54061889648438,-190.9484405517578,-16273.265625,-303.677978515625,7.576440334320068,-7.11431884765625,44.866966247558594,0.11622422933578491,0.709983229637146
1731876900207.0,0.0,0.0,-20.0,0.0,0.0,0.0,0.0,0.0,0.0,0.0,0.0,0.0,0.0,0.0,0.0,-0.036573853343725204,0.0,0.0,-0.03190305456519127,0.0,0.0,-185.7861328125,-7.238666534423828,-16496.140625,-177.39450073242188,-9.544777870178223,-7.1296586990356445,45.17344284057617,0.18138250708580017,-0.3398597240447998
1731876900207.0,0.0,0.0,-20.0,0.0,0.0,0.0,0.0,0.0,0.0,0.0,0.0,0.0,0.0,0.0,0.0,-0.036573853343725204,0.0,0.0,-0.03190305456519127,0.0,0.0,-185.7861328125,-7.238666534423828,-16496.140625,-177.39450073242188,-9.544777870178223,-7.1296586990356445,45.17344284057617,0.18138250708580017,-0.3398597240447998
1731876900257.0,0.0,0.0,-20.0,0.0,0.0,0.0,0.0,0.0,0.0,0.0,0.0,0.0,0.0,0.0,0.0,-0.0901733934879303,0.0,0.0,-0.006352519616484642,0.0,0.0,15.086679458618164,146.20831298828125,-16501.923828125,-37.31004333496094,28.528120040893555,-85.84893798828125,45.776817321777344,-0.5225371718406677,-0.2945382297039032
1731876900274.0,0.0,0.0,-20.0,0.0,0.0,0.0,0.0,0.0,0.0,0.0,0.0,0.0,0.0,0.0,0.0,-0.09745284169912338,0.0,0.0,0.0021302818786352873,0.0,0.0,48.54334259033203,106.57904815673828,-16361.3994140625,36.70683288574219,73.14190673828125,-58.108943939208984,44.903778076171875,0.014076135121285915,0.40968072414398193
1731876900308.0,0.0,0.0,-20.0,0.0,0.0,0.0,0.0,0.0,0.0,0.0,0.0,0.0,0.0,0.0,0.0,-0.08288445323705673,0.0,0.0,0.019000152125954628,0.0,0.0,-39.364112854003906,88.01448059082031,-16414.1640625,86.47582244873047,22.140506744384766,-100.43661499023438,45.0439567565918,0.3040207326412201,0.169033020734787
1731876900308.0,0.0,0.0,-20.0,0.0,0.0,0.0,0.0,0.0,0.0,0.0,0.0,0.0,0.0,0.0,0.0,-0.08288445323705673,0.0,0.0,0.019000152125954628,0.0,0.0,-39.364112854003906,88.01448059082031,-16414.1640625,86.47582244873047,22.140506744384766,-100.43661499023438,45.0439567565918,0.3040207326412201,0.169033020734787
1731876900358.0,0.0,0.0,-20.0,0.0,0.0,0.0,0.0,0.0,0.0,0.0,0.0,0.0,0.0,0.0,0.0,-0.029743390157818794,0.0,0.0,0.05233755335211754,0.0,0.0,-74.81812286376953,-6.381753921508789,-16443.8984375,399.7696533203125,-35.6717414855957,51.17646789550781,45.42154312133789,-0.2542901337146759,0.28898870944976807
1731876900374.0,0.0,0.0,-20.0,0.0,0.0,0.0,0.0,0.0,0.0,0.0,0.0,0.0,0.0,0.0,0.0,0.030242919921875,0.0,0.0,0.060512248426675797,0.0,0.0,6.258758068084717,-72.87704467773438,-16384.39453125,465.8466796875,-4.650743007659912,-63.06874084472656,45.023250579833984,0.07612064480781555,-0.3797110319137573
1731876900408.0,0.0,0.0,-20.0,0.0,0.0,0.0,0.0,0.0,0.0,0.0,0.0,0.0,0.0,0.0,0.0,0.178192138671875,0.0,0.0,0.08492051064968109,0.0,0.0,-76.60277557373047,-184.26687622070312,-16329.0927734375,647.2036743164062,-78.62078094482422,-34.90420150756836,44.855106353759766,0.02648267149925232,-0.08320675790309906
1731876900408.0,0.0,0.0,-20.0,0.0,0.0,0.0,0.0,0.0,0.0,0.0,0.0,0.0,0.0,0.0,0.0,0.178192138671875,0.0,0.0,0.08492051064968109,0.0,0.0,-76.60277557373047,-184.26687622070312,-16329.0927734375,647.2036743164062,-78.62078094482422,-34.90420150756836,44.855106353759766,0.02648267149925232,-0.08320675790309906
1731876900424.0,0.0,0.0,-20.0,0.0,0.0,0.0,0.0,0.0,0.0,0.0,0.0,0.0,0.0,0.0,0.0,0.2755126953125,0.0,0.0,0.09282900393009186,0.0,0.0,1.044529676437378,-226.54586791992188,-16461.3203125,864.565673828125,-85.41832733154297,32.43175506591797,44.7014045715332,0.34430763125419617,-0.020051810890436172
1731876900475.0,0.0,0.0,-20.0,0.0,0.0,0.0,0.0,0.0,0.0,0.0,0.0,0.0,0.0,0.0,0.0,0.49664306640625,0.0,0.0,0.10778331756591797,0.0,0.0,9.768503189086914,-199.17811584472656,-16430.466796875,760.1045532226562,-59.786048889160156,54.07159423828125,44.957584381103516,-0.16626276075839996,0.2996841073036194
1731876900491.0,0.0,0.0,-20.0,0.0,0.0,0.0,0.0,0.0,0.0,0.0,0.0,0.0,0.0,0.0,0.0,0.620147705078125,0.0,0.0,0.1153048574924469,0.0,0.0,-68.16477966308594,-163.73080444335938,-16148.9794921875,823.9772338867188,9.230509757995605,-3.1816518306732178,45.254730224609375,-0.04791639372706413,-0.39274781942367554
1731876900507.0,0.0,0.0,-20.0,0.0,0.0,0.0,0.0,0.0,0.0,0.0,0.0,0.0,0.0,0.0,0.0,0.752288818359375,0.0,0.0,0.12272675335407257,0.0,0.0,-110.09645080566406,-116.41178131103516,-16351.234375,1070.7213134765625,154.8130645751953,104.80390930175781,44.75178146362305,-0.37850531935691833,0.26874566078186035
1731876900524.0,0.0,0.0,-20.0,0.0,0.0,0.0,0.0,0.0,0.0,0.0,0.0,0.0,0.0,0.0,0.0,0.892913818359375,0.0,0.0,0.12199372053146362,0.0,0.0,55.161373138427734,-330.87548828125,-16308.5986328125,1093.899169921875,80.82847595214844,-56.968753814697266,45.04365921020508,0.4594244956970215,0.2583774924278259
1731876900575.0,0.0,0.0,-20.0,0.0,0.0,0.0,0.0,0.0,0.0,0.0,0.0,0.0,0.0,0.0,0.0,1.179779052734375,0.0,0.0,0.12742893397808075,0.0,0.0,19.886350631713867,-273.2510986328125,-16456.705078125,792.3485107421875,-3991.2451171875,94.4424819946289,45.00309371948242,0.01893744431436062,-0.08722976595163345
1731876900591.0,0.0,0.0,-20.0,0.0,0.0,0.0,0.0,0.0,0.0,0.0,0.0,0.0,0.0,0.0,0.0,1.3258056640625,0.0,0.0,0.14208519458770752,0.0,0.0,40.99916076660156,-334.40374755859375,-16325.087890625,1183.204345703125,-142.89193725585938,49.91950225830078,45.289424896240234,0.0070723374374210835,0.08784930408000946
1731876900608.0,0.0,0.0,-20.0,0.0,0.0,0.0,0.0,0.0,0.0,0.0,0.0,0.0,0.0,0.0,0.0,1.488616943359375,0.0,0.0,0.14101211726665497,0.0,0.0,121.67356872558594,-463.2659912109375,-16340.4072265625,1002.5039672851562,-42.29556655883789,-37.33100891113281,44.84056091308594,-0.2391185313463211,-0.4583737850189209
1731876900625.0,0.0,0.0,-20.0,0.0,0.0,0.0,0.0,0.0,0.0,0.0,0.0,0.0,0.0,0.0,0.0,1.65020751953125,0.0,0.0,0.14755596220493317,0.0,0.0,7.454481601715088,-368.6771545410156,-16298.7490234375,972.0076293945312,-112.43817138671875,39.91379165649414,44.5090446472168,0.011438784189522266,-0.04868736118078232
1731876900675.0,0.0,0.0,-20.0,0.0,0.0,0.0,0.0,0.0,0.0,0.0,0.0,0.0,0.0,0.0,0.0,1.99420166015625,0.0,0.0,0.15875807404518127,0.0,0.0,-78.14920043945312,-430.1018981933594,-16328.4228515625,1180.377197265625,132.52113342285156,-25.867921829223633,44.82484436035156,-0.07385685294866562,-0.2672012746334076
1731876900691.0,0.0,0.0,-20.0,0.0,0.0,0.0,0.0,0.0,0.0,0.0,0.0,0.0,0.0,0.0,0.0,2.1761474609375,0.0,0.0,0.16468465328216553,0.0,0.0,31.709196090698242,-629.9193115234375,-16334.873046875,1372.4912109375,8.513011932373047,2.3285131454467773,44.97273254394531,0.10047964751720428,-0.06516484916210175
1731876900708.0,0.0,0.0,-20.0,0.0,0.0,0.0,0.0,0.0,0.0,0.0,0.0,0.0,0.0,0.0,0.0,2.364837646484375,0.0,0.0,0.17047308385372162,0.0,0.0,75.18773651123047,-860.115234375,-16338.939453125,1269.2178955078125,23.337820053100586,-78.72132873535156,45.85200500488281,-0.6052519679069519,0.152008056640625
1731876900725.0,0.0,0.0,-20.0,0.0,0.0,0.0,0.0,0.0,0.0,0.0,0.0,0.0,0.0,0.0,0.0,2.560211181640625,0.0,0.0,0.1687399446964264,0.0,0.0,-77.34917449951172,-826.2257690429688,-16252.2255859375,1091.443115234375,-4.136008262634277,17.897619247436523,44.8365364074707,-0.06191680580377579,-0.034041449427604675
1731876900758.0,0.0,0.0,-20.0,0.0,0.0,0.0,0.0,0.0,0.0,0.0,0.0,0.0,0.0,0.0,0.0,2.753570556640625,0.0,0.0,0.1723276525735855,0.0,0.0,-66.31234741210938,-660.6873779296875,-16426.5,1344.4661865234375,13.85443115234375,-73.52900695800781,44.7950325012207,-0.6598997116088867,-0.6316466331481934
1731876900791.0,0.0,0.0,-20.0,0.0,0.0,0.0,0.0,0.0,0.0,0.0,0.0,0.0,0.0,0.0,0.0,3.146240234375,0.0,0.0,0.17540138959884644,0.0,0.0,-149.916015625,-979.2150268554688,-16502.50390625,1037.5179443359375,-71.33952331542969,37.20476150512695,44.72054672241211,0.0023933204356580973,0.23274482786655426
1731876900807.0,0.0,0.0,-20.0,0.0,0.0,0.0,0.0,0.0,0.0,0.0,0.0,0.0,0.0,0.0,0.0,3.347259521484375,0.0,0.0,0.17331241071224213,0.0,0.0,40.87577438354492,-798.330810546875,-16198.462890625,1671.6552734375,110.74626922607422,52.145023345947266,44.8782958984375,0.6411222815513611,-0.21300159394741058
1731876900824.0,0.0,0.0,-20.0,0.0,0.0,0.0,0.0,0.0,0.0,0.0,0.0,0.0,0.0,0.0,0.0,3.54583740234375,0.0,0.0,0.1711597591638565,0.0,0.0,287.5382080078125,-1064.06103515625,-16312.560546875,1405.8970947265625,34.363548278808594,-60.064453125,44.35783386230469,0.15829789638519287,0.7274817824363708
1731876900858.0,0.0,0.0,-20.0,0.0,0.0,0.0,0.0,0.0,0.0,0.0,0.0,0.0,0.0,0.0,0.0,3.741973876953125,0.0,0.0,0.1667114794254303,0.0,0.0,-62.7514762878418,-1161.52099609375,-16262.0947265625,1454.178466796875,-103.9389877319336,-3.748626708984375,44.62085723876953,0.02457151748239994,-0.11627446860074997
1731876900891.0,0.0,0.0,-20.0,0.0,0.0,0.0,0.0,0.0,0.0,0.0,0.0,0.0,0.0,0.0,0.0,4.1214599609375,0.0,0.0,0.16211120784282684,0.0,0.0,1.7796250581741333,-1229.9359130859375,-16202.22265625,1210.3265380859375,-35.05986404418945,-117.33296966552734,45.010536193847656,-0.2501775026321411,0.1921670138835907
1731876900907.0,0.0,0.0,-20.0,0.0,0.0,0.0,0.0,0.0,0.0,0.0,0.0,0.0,0.0,0.0,0.0,4.307220458984375,0.0,0.0,0.15974372625350952,0.0,0.0,219.2529296875,-1065.7679443359375,-16357.1259765625,1424.8194580078125,45.5941047668457,-9.62959098815918,45.220123291015625,0.33981263637542725,0.3545088469982147
1731876900907.0,0.0,0.0,-20.0,0.0,0.0,0.0,0.0,0.0,0.0,0.0,0.0,0.0,0.0,0.0,0.0,4.307220458984375,0.0,0.0,0.15974372625350952,0.0,0.0,219.2529296875,-1065.7679443359375,-16357.1259765625,1424.8194580078125,45.5941047668457,-9.62959098815918,45.220123291015625,0.33981263637542725,0.3545088469982147
1731876900957.0,0.0,0.0,-20.0,0.0,0.0,0.0,0.0,0.0,0.0,0.0,0.0,0.0,0.0,0.0,0.0,4.6705322265625,0.0,0.0,0.15236130356788635,0.0,0.0,-101.32403564453125,-1357.49951171875,-16351.015625,1237.1812744140625,-7.644647121429443,13.279548645019531,44.93951416015625,-0.14766815304756165,0.10880671441555023
1731876900974.0,0.0,0.0,-20.0,0.0,0.0,0.0,0.0,0.0,0.0,0.0,0.0,0.0,0.0,0.0,0.0,4.845123291015625,0.0,0.0,0.14972728490829468,0.0,0.0,163.8571319580078,-1213.5426025390625,-16246.1884765625,1154.3406982421875,64.66169738769531,-104.73950958251953,44.9314079284668,-0.38824111223220825,-0.6033156514167786
1731876900991.0,0.0,0.0,-20.0,0.0,0.0,0.0,0.0,0.0,0.0,0.0,0.0,0.0,0.0,0.0,0.0,5.016693115234375,0.0,0.0,0.1471254974603653,0.0,0.0,-87.32354736328125,-1609.3089599609375,-16316.3603515625,1281.669677734375,46.98992919921875,122.03653717041016,44.778751373291016,-0.13742730021476746,-0.3448360860347748
1731876901008.0,0.0,0.0,-20.0,0.0,0.0,0.0,0.0,0.0,0.0,0.0,0.0,0.0,0.0,0.0,0.0,5.185302734375,0.0,0.0,0.14444367587566376,0.0,0.0,-88.6498031616211,-1469.7557373046875,-16189.5478515625,1039.9989013671875,-33.76475524902344,49.51823043823242,44.356048583984375,0.3855647146701813,-0.12328051775693893
1731876901024.0,0.0,0.0,-20.0,0.0,0.0,0.0,0.0,0.0,0.0,0.0,0.0,0.0,0.0,0.0,0.0,5.350799560546875,0.0,0.0,0.14185839891433716,0.0,0.0,-25.063186645507812,-1549.353271484375,-16403.4453125,1055.526611328125,9.615128517150879,2.9046268463134766,44.95473098754883,0.025781717151403427,0.09743362665176392
1731876901058.0,0.0,0.0,-20.0,0.0,0.0,0.0,0.0,0.0,0.0,0.0,0.0,0.0,0.0,0.0,0.0,5.51336669921875,0.0,0.0,0.13627371191978455,0.0,0.0,-49.10044860839844,-1454.3975830078125,-16246.5615234375,1037.7584228515625,-59.159732818603516,40.59638595581055,45.35565185546875,0.3317506015300751,0.43088045716285706
1731876901092.0,0.0,0.0,-20.0,0.0,0.0,0.0,0.0,0.0,0.0,0.0,0.0,0.0,0.0,0.0,0.0,5.82257080078125,0.0,0.0,0.13067694008350372,0.0,0.0,-156.2815704345703,-1739.53564453125,-16363.0107421875,1053.5855712890625,42.205684661865234,57.18617630004883,44.58491897583008,0.6336542367935181,-0.0039621503092348576
1731876901108.0,0.0,0.0,-20.0,0.0,0.0,0.0,0.0,0.0,0.0,0.0,0.0,0.0,0.0,0.0,0.0,5.972320556640625,0.0,0.0,0.12786635756492615,0.0,0.0,215.94879150390625,-1544.468994140625,-16459.814453125,968.5661010742188,-17.754592895507812,-58.14578628540039,44.78176498413086,-0.6311962008476257,-0.10520012676715851
1731876901125.0,0.0,0.0,-20.0,0.0,0.0,0.0,0.0,0.0,0.0,0.0,0.0,0.0,0.0,0.0,0.0,6.11883544921875,0.0,0.0,0.12493611872196198,0.0,0.0,67.76972961425781,-1647.0811767578125,-16482.99609375,953.1040649414062,-3.468369722366333,-6.895683288574219,45.126808166503906,0.22950118780136108,-0.19774581491947174
1731876901158.0,0.0,0.0,-20.0,0.0,0.0,0.0,0.0,0.0,0.0,0.0,0.0,0.0,0.0,0.0,0.0,6.26202392578125,0.0,0.0,0.11901383846998215,0.0,0.0,-297.4452209472656,-1791.171875,-16333.8759765625,904.018310546875,97.17845916748047,129.61740112304688,45.333675384521484,-0.4445277154445648,-0.25367501378059387
1731876901175.0,0.0,0.0,-20.0,0.0,0.0,0.0,0.0,0.0,0.0,0.0,0.0,0.0,0.0,0.0,0.0,6.39837646484375,0.0,0.0,0.11602447181940079,0.0,0.0,104.65299224853516,-1921.8487548828125,-16184.6357421875,945.2520141601562,5.968472480773926,-20.511737823486328,44.94309997558594,-0.16468369960784912,-0.2217068374156952
1731876901208.0,0.0,0.0,-20.0,0.0,0.0,0.0,0.0,0.0,0.0,0.0,0.0,0.0,0.0,0.0,0.0,6.66082763671875,0.0,0.0,0.10990549623966217,0.0,0.0,203.7012939453125,-1736.3656005859375,-16223.255859375,839.1666259765625,81.61459350585938,0.01732274703681469,45.029632568359375,-0.3063802421092987,-0.7065636515617371
1731876901208.0,0.0,0.0,-20.0,0.0,0.0,0.0,0.0,0.0,0.0,0.0,0.0,0.0,0.0,0.0,0.0,6.66082763671875,0.0,0.0,0.10990549623966217,0.0,0.0,203.7012939453125,-1736.3656005859375,-16223.255859375,839.1666259765625,81.61459350585938,0.01732274703681469,45.029632568359375,-0.3063802421092987,-0.7065636515617371
1731876901258.0,0.0,0.0,-20.0,0.0,0.0,0.0,0.0,0.0,0.0,0.0,0.0,0.0,0.0,0.0,0.0,6.909149169921875,0.0,0.0,0.10052189975976944,0.0,0.0,-99.96253967285156,-1945.26708984375,-16399.28125,950.6141967773438,120.51315307617188,30.027591705322266,45.57266616821289,-0.010788820683956146,-0.10976531356573105
1731876901275.0,0.0,0.0,-20.0,0.0,0.0,0.0,0.0,0.0,0.0,0.0,0.0,0.0,0.0,0.0,0.0,7.02435302734375,0.0,0.0,0.09732910990715027,0.0,0.0,-89.73827362060547,-2047.923583984375,-16314.2099609375,694.6572265625,-105.14380645751953,-61.66389846801758,45.14591979980469,0.28880754113197327,0.033680595457553864
1731876901308.0,0.0,0.0,-20.0,0.0,0.0,0.0,0.0,0.0,0.0,0.0,0.0,0.0,0.0,0.0,0.0,7.243743896484375,0.0,0.0,0.09086277335882187,0.0,0.0,3.989154100418091,-1933.622802734375,-16374.8623046875,595.6619262695312,-11.569340705871582,-128.80377197265625,45.045982360839844,0.32431524991989136,-0.15265749394893646
1731876901308.0,0.0,0.0,-20.0,0.0,0.0,0.0,0.0,0.0,0.0,0.0,0.0,0.0,0.0,0.0,0.0,7.243743896484375,0.0,0.0,0.09086277335882187,0.0,0.0,3.989154100418091,-1933.622802734375,-16374.8623046875,595.6619262695312,-11.569340705871582,-128.80377197265625,45.045982360839844,0.32431524991989136,-0.15265749394893646
1731876901358.0,0.0,0.0,-20.0,0.0,0.0,0.0,0.0,0.0,0.0,0.0,0.0,0.0,0.0,0.0,0.0,7.448272705078125,0.0,0.0,0.08109654486179352,0.0,0.0,-12.330912590026855,-2126.0087890625,-16228.75,595.890625,-117.83429718017578,43.58201217651367,44.85630798339844,0.2571190893650055,0.043982457369565964
1731876901375.0,0.0,0.0,-20.0,0.0,0.0,0.0,0.0,0.0,0.0,0.0,0.0,0.0,0.0,0.0,0.0,7.54119873046875,0.0,0.0,0.07765700668096542,0.0,0.0,-28.457822799682617,-2152.240966796875,-16227.8369140625,682.7240600585938,-3915.663818359375,-55.88117599487305,45.009254455566406,0.979205846786499,0.17232149839401245
1731876901392.0,0.0,0.0,-20.0,0.0,0.0,0.0,0.0,0.0,0.0,0.0,0.0,0.0,0.0,0.0,0.0,7.63018798828125,0.0,0.0,0.07436687499284744,0.0,0.0,20.272363662719727,-2249.55126953125,-16229.3955078125,408.5865478515625,21.698781967163086,-105.31214904785156,45.4680061340332,-0.20579050481319427,0.31075024604797363
1731876901409.0,0.0,0.0,-20.0,0.0,0.0,0.0,0.0,0.0,0.0,0.0,0.0,0.0,0.0,0.0,0.0,7.71539306640625,0.0,0.0,0.07093296945095062,0.0,0.0,146.26666259765625,-2324.386962890625,-16252.220703125,567.6281127929688,107.98355102539062,29.792818069458008,45.628684997558594,-0.4087297022342682,0.09396599978208542
1731876901425.0,0.0,0.0,-20.0,0.0,0.0,0.0,0.0,0.0,0.0,0.0,0.0,0.0,0.0,0.0,0.0,7.79669189453125,0.0,0.0,0.0676281601190567,0.0,0.0,-13.69654655456543,-2253.580078125,-16008.0146484375,452.8431396484375,99.8040542602539,-113.7965316772461,44.84707260131836,-0.15710249543190002,-0.016720054671168327
1731876901475.0,0.0,0.0,-20.0,0.0,0.0,0.0,0.0,0.0,0.0,0.0,0.0,0.0,0.0,0.0,0.0,7.9437255859375,0.0,0.0,0.05730675905942917,0.0,0.0,111.17707824707031,-2393.775634765625,-16309.490234375,471.93524169921875,28.7895450592041,-68.01907348632812,45.18998718261719,0.11173368990421295,-0.17320504784584045
1731876901492.0,0.0,0.0,-20.0,0.0,0.0,0.0,0.0,0.0,0.0,0.0,0.0,0.0,0.0,0.0,0.0,8.0093994140625,0.0,0.0,0.053832948207855225,0.0,0.0,139.36080932617188,-2413.416748046875,-16226.919921875,357.4705810546875,-16.184900283813477,-91.75991821289062,44.98353576660156,0.0018409701297059655,0.3397303819656372
1731876901509.0,0.0,0.0,-20.0,0.0,0.0,0.0,0.0,0.0,0.0,0.0,0.0,0.0,0.0,0.0,0.0,8.071075439453125,0.0,0.0,0.05029304698109627,0.0,0.0,46.385833740234375,-2164.10888671875,-16262.2646484375,354.1982727050781,-21.11473846435547,60.897422790527344,44.63484573364258,0.05569211766123772,0.47147589921951294
1731876901525.0,0.0,0.0,-20.0,0.0,0.0,0.0,0.0,0.0,0.0,0.0,0.0,0.0,0.0,0.0,0.0,8.12872314453125,0.0,0.0,0.046789903193712234,0.0,0.0,-51.189910888671875,-2372.4658203125,-16101.71484375,486.6087341308594,-136.82550048828125,77.81283569335938,45.09271240234375,-0.11918739974498749,0.29117491841316223
1731876901575.0,0.0,0.0,-20.0,0.0,0.0,0.0,0.0,0.0,0.0,0.0,0.0,0.0,0.0,0.0,0.0,8.22796630859375,0.0,0.0,0.036335255950689316,0.0,0.0,65.00785827636719,-2437.47509765625,-16166.3564453125,266.54376220703125,189.82948303222656,-28.334762573242188,45.21040725708008,0.25911837816238403,0.2459665834903717
1731876901592.0,0.0,0.0,-20.0,0.0,0.0,0.0,0.0,0.0,0.0,0.0,0.0,0.0,0.0,0.0,0.0,8.26959228515625,0.0,0.0,0.03278603404760361,0.0,0.0,-2.541588068008423,-2432.369140625,-16268.6142578125,228.5412139892578,120.3393325805664,86.01116180419922,45.31352996826172,-0.2511974573135376,0.1338551640510559
1731876901608.0,0.0,0.0,-20.0,0.0,0.0,0.0,0.0,0.0,0.0,0.0,0.0,0.0,0.0,0.0,0.0,8.307159423828125,0.0,0.0,0.029253650456666946,0.0,0.0,-16.392040252685547,-2384.5927734375,-16160.1025390625,303.86370849609375,-21.199451446533203,-76.5219497680664,44.657188415527344,-0.3441159725189209,-0.17779503762722015
1731876901625.0,0.0,0.0,-20.0,0.0,0.0,0.0,0.0,0.0,0.0,0.0,0.0,0.0,0.0,0.0,0.0,8.3406982421875,0.0,0.0,0.025713201612234116,0.0,0.0,8.531888961791992,-2494.3818359375,-16242.6123046875,189.49171447753906,-6.5052995681762695,53.83978271484375,44.83121871948242,0.42193567752838135,-0.12306425720453262
1731876901658.0,0.0,0.0,-20.0,0.0,0.0,0.0,0.0,0.0,0.0,0.0,0.0,0.0,0.0,0.0,0.0,8.370147705078125,0.0,0.0,0.018612021580338478,0.0,0.0,118.57254791259766,-2393.37890625,-15991.1240234375,151.25387573242188,99.19575500488281,-32.03093719482422,44.56355667114258,-0.5168389081954956,0.6552302241325378
1731876901691.0,0.0,0.0,-20.0,0.0,0.0,0.0,0.0,0.0,0.0,0.0,0.0,0.0,0.0,0.0,0.0,8.40869140625,0.0,0.0,0.011464114300906658,0.0,0.0,59.2928581237793,-2342.734619140625,-16295.0673828125,120.64305114746094,-13.61640453338623,-78.30269622802734,44.96780776977539,0.25761470198631287,-0.1423453688621521
1731876901709.0,0.0,0.0,-20.0,0.0,0.0,0.0,0.0,0.0,0.0,0.0,0.0,0.0,0.0,0.0,0.0,8.42181396484375,0.0,0.0,0.007688157260417938,0.0,0.0,-91.4159164428711,-2553.04443359375,-16286.7998046875,116.90196990966797,6.583504676818848,-88.31460571289062,45.08278274536133,-0.05675477534532547,0.3633033037185669
1731876901726.0,0.0,0.0,-20.0,0.0,0.0,0.0,0.0,0.0,0.0,0.0,0.0,0.0,0.0,0.0,0.0,8.430633544921875,0.0,0.0,0.004119774326682091,0.0,0.0,52.552040100097656,-2283.057861328125,-16051.3486328125,-55.33588790893555,-68.8126449584961,71.60275268554688,45.08121109008789,-0.21220512688159943,0.0035573658533394337
1731876901759.0,0.0,0.0,-20.0,0.0,0.0,0.0,0.0,0.0,0.0,0.0,0.0,0.0,0.0,0.0,0.0,8.435333251953125,0.0,0.0,-0.002966922475025058,0.0,0.0,-149.76756286621094,-2281.942138671875,-16251.3896484375,-23.685779571533203,-69.68962860107422,-74.94059753417969,45.13287353515625,0.26861023902893066,-0.1998491883277893
1731876901792.0,0.0,0.0,-20.0,0.0,0.0,0.0,0.0,0.0,0.0,0.0,0.0,0.0,0.0,0.0,0.0,8.42449951171875,0.0,0.0,-0.010102835483849049,0.0,0.0,-244.0550079345703,-2524.061767578125,-16158.8125,-117.3861083984375,-11.214765548706055,-12.979523658752441,45.13250732421875,-0.2511948049068451,0.02931082434952259
1731876901808.0,0.0,0.0,-20.0,0.0,0.0,0.0,0.0,0.0,0.0,0.0,0.0,0.0,0.0,0.0,0.0,8.41290283203125,0.0,0.0,-0.013667106628417969,0.0,0.0,12.96640396118164,-2277.609130859375,-16068.873046875,-77.21357727050781,-2.228389024734497,14.548053741455078,44.81232452392578,0.02257085032761097,-0.4800678491592407
1731876901825.0,0.0,0.0,-20.0,0.0,0.0,0.0,0.0,0.0,0.0,0.0,0.0,0.0,0.0,0.0,0.0,8.397247314453125,0.0,0.0,-0.017253775149583817,0.0,0.0,193.70541381835938,-2342.92431640625,-16328.7939453125,-101.11228942871094,13.552048683166504,4.3468451499938965,44.686378479003906,-0.3204966187477112,-0.3851679861545563
1731876901858.0,0.0,0.0,-20.0,0.0,0.0,0.0,0.0,0.0,0.0,0.0,0.0,0.0,0.0,0.0,0.0,8.377471923828125,0.0,0.0,-0.02438555657863617,0.0,0.0,-149.60665893554688,-2383.8291015625,-16194.3681640625,-107.52886199951172,-11.031532287597656,21.697376251220703,45.06679916381836,-0.2753162980079651,0.5224528312683105
1731876901892.0,0.0,0.0,-20.0,0.0,0.0,0.0,0.0,0.0,0.0,0.0,0.0,0.0,0.0,0.0,0.0,8.3175048828125,0.0,0.0,-0.031490258872509,0.0,0.0,47.920833587646484,-2159.65673828125,-16122.69140625,-360.391845703125,52.87275314331055,-99.95072937011719,44.7743034362793,-0.19953224062919617,-0.3079656958580017
1731876901908.0,0.0,0.0,-20.0,0.0,0.0,0.0,0.0,0.0,0.0,0.0,0.0,0.0,0.0,0.0,0.0,8.281402587890625,0.0,0.0,-0.03499113768339157,0.0,0.0,9.552679061889648,-2588.68701171875,-16334.3505859375,-273.9413146972656,65.83477020263672,-44.06064987182617,44.97065353393555,0.34735748171806335,0.356367826461792
1731876901908.0,0.0,0.0,-20.0,0.0,0.0,0.0,0.0,0.0,0.0,0.0,0.0,0.0,0.0,0.0,0.0,8.281402587890625,0.0,0.0,-0.03499113768339157,0.0,0.0,9.552679061889648,-2588.68701171875,-16334.3505859375,-273.9413146972656,65.83477020263672,-44.06064987182617,44.97065353393555,0.34735748171806335,0.356367826461792
1731876901958.0,0.0,0.0,-20.0,0.0,0.0,0.0,0.0,0.0,0.0,0.0,0.0,0.0,0.0,0.0,0.0,8.197113037109375,0.0,0.0,-0.045586902648210526,0.0,0.0,27.003355026245117,-2289.84912109375,-16186.181640625,-271.352294921875,-153.84869384765625,52.44890213012695,44.97101593017578,-0.3461710214614868,0.18552035093307495
1731876901975.0,0.0,0.0,-20.0,0.0,0.0,0.0,0.0,0.0,0.0,0.0,0.0,0.0,0.0,0.0,0.0,8.144866943359375,0.0,0.0,-0.049069084227085114,0.0,0.0,-194.2241668701172,-2196.256591796875,-16197.6103515625,-411.76739501953125,93.4957504272461,-77.25823974609375,45.520626068115234,-0.1388125866651535,-0.4718439280986786
1731876902008.0,0.0,0.0,-20.0,0.0,0.0,0.0,0.0,0.0,0.0,0.0,0.0,0.0,0.0,0.0,0.0,8.028472900390625,0.0,0.0,-0.05599191412329674,0.0,0.0,-143.584716796875,-2141.62548828125,-16335.134765625,-479.51953125,-58.25857925415039,17.462682723999023,45.24011993408203,0.05682597681879997,0.1248370110988617
1731876902008.0,0.0,0.0,-20.0,0.0,0.0,0.0,0.0,0.0,0.0,0.0,0.0,0.0,0.0,0.0,0.0,8.028472900390625,0.0,0.0,-0.05599191412329674,0.0,0.0,-143.584716796875,-2141.62548828125,-16335.134765625,-479.51953125,-58.25857925415039,17.462682723999023,45.24011993408203,0.05682597681879997,0.1248370110988617
1731876902025.0,0.0,0.0,-20.0,0.0,0.0,0.0,0.0,0.0,0.0,0.0,0.0,0.0,0.0,0.0,0.0,7.96429443359375,0.0,0.0,-0.059506338089704514,0.0,0.0,-82.55551147460938,-2308.426513671875,-16372.822265625,-400.97662353515625,-8.726486206054688,123.06807708740234,45.18193817138672,-0.38748425245285034,0.11246142536401749
1731876902075.0,0.0,0.0,-20.0,0.0,0.0,0.0,0.0,0.0,0.0,0.0,0.0,0.0,0.0,0.0,0.0,7.820098876953125,0.0,0.0,-0.0697193518280983,0.0,0.0,48.407100677490234,-2075.709716796875,-16293.935546875,-498.46075439453125,39.91997528076172,-36.53932571411133,45.369808197021484,0.2532842457294464,0.39759737253189087
1731876902092.0,0.0,0.0,-20.0,0.0,0.0,0.0,0.0,0.0,0.0,0.0,0.0,0.0,0.0,0.0,0.0,7.740203857421875,0.0,0.0,-0.0731358751654625,0.0,0.0,199.478271484375,-2159.36669921875,-16176.1728515625,-596.7996826171875,42.77010726928711,-57.973304748535156,45.315452575683594,-5.2300845709396526e-05,-0.81093430519104
1731876902109.0,0.0,0.0,-20.0,0.0,0.0,0.0,0.0,0.0,0.0,0.0,0.0,0.0,0.0,0.0,0.0,7.656402587890625,0.0,0.0,-0.07648258656263351,0.0,0.0,16.327836990356445,-2167.490966796875,-16287.0283203125,-700.6865844726562,-50.780635833740234,-59.668235778808594,45.17848205566406,0.41863808035850525,0.08204855769872665
1731876902125.0,0.0,0.0,-20.0,0.0,0.0,0.0,0.0,0.0,0.0,0.0,0.0,0.0,0.0,0.0,0.0,7.568756103515625,0.0,0.0,-0.07983258366584778,0.0,0.0,21.266172409057617,-2163.8076171875,-16242.8232421875,-386.0924377441406,29.13641357421875,-31.171613693237305,45.24140548706055,-0.21699406206607819,0.034757085144519806
1731876902175.0,0.0,0.0,-20.0,0.0,0.0,0.0,0.0,0.0,0.0,0.0,0.0,0.0,0.0,0.0,0.0,7.378173828125,0.0,0.0,-0.0896972045302391,0.0,0.0,-100.22797393798828,-2051.358642578125,-16302.6611328125,-862.5049438476562,35.68775177001953,-54.3812370300293,44.77700424194336,0.11986637860536575,-0.16201254725456238
1731876902192.0,0.0,0.0,-20.0,0.0,0.0,0.0,0.0,0.0,0.0,0.0,0.0,0.0,0.0,0.0,0.0,7.275390625,0.0,0.0,-0.09295271337032318,0.0,0.0,47.29667663574219,-2152.959716796875,-16293.205078125,-680.5962524414062,-77.04957580566406,-29.988277435302734,45.29063415527344,-0.6142820119857788,0.2235075831413269
1731876902209.0,0.0,0.0,-20.0,0.0,0.0,0.0,0.0,0.0,0.0,0.0,0.0,0.0,0.0,0.0,0.0,7.168853759765625,0.0,0.0,-0.0962291732430458,0.0,0.0,-23.121625900268555,-1929.0223388671875,-16471.619140625,-656.16845703125,23.22199249267578,-96.07137298583984,44.59543991088867,-0.5973283648490906,-0.32990649342536926
1731876902225.0,0.0,0.0,-20.0,0.0,0.0,0.0,0.0,0.0,0.0,0.0,0.0,0.0,0.0,0.0,0.0,7.05859375,0.0,0.0,-0.0993848368525505,0.0,0.0,-148.22886657714844,-1991.3065185546875,-16034.16796875,3327.82958984375,34.849609375,55.009849548339844,45.07732391357422,-0.1711568385362625,0.16897739470005035
1731876902275.0,0.0,0.0,-20.0,0.0,0.0,0.0,0.0,0.0,0.0,0.0,0.0,0.0,0.0,0.0,0.0,6.82354736328125,0.0,0.0,-0.10882236063480377,0.0,0.0,-154.70379638671875,-1877.3826904296875,-16335.056640625,-825.872314453125,-34.0816764831543,5.032473087310791,45.126163482666016,0.12355966866016388,-0.2024804800748825
1731876902292.0,0.0,0.0,-20.0,0.0,0.0,0.0,0.0,0.0,0.0,0.0,0.0,0.0,0.0,0.0,0.0,6.6988525390625,0.0,0.0,-0.11190849542617798,0.0,0.0,-49.77156448364258,-2059.765380859375,-16225.1015625,-766.8963012695312,-13.30282974243164,-94.96256256103516,44.41911697387695,0.5811026096343994,-0.09381818771362305
1731876902309.0,0.0,0.0,-20.0,0.0,0.0,0.0,0.0,0.0,0.0,0.0,0.0,0.0,0.0,0.0,0.0,6.57061767578125,0.0,0.0,-0.1149633377790451,0.0,0.0,54.682640075683594,-1910.2313232421875,-16322.8154296875,-936.5792236328125,1.7878531217575073,83.85599517822266,44.725406646728516,0.22308644652366638,0.18182577192783356
1731876902325.0,0.0,0.0,-20.0,0.0,0.0,0.0,0.0,0.0,0.0,0.0,0.0,0.0,0.0,0.0,0.0,6.438873291015625,0.0,0.0,-0.11796407401561737,0.0,0.0,-145.59298706054688,-1801.7125244140625,-16344.0341796875,-841.12109375,82.24345397949219,6.874171257019043,44.91423797607422,-0.14696906507015228,0.0035938939545303583
1731876902359.0,0.0,0.0,-20.0,0.0,0.0,0.0,0.0,0.0,0.0,0.0,0.0,0.0,0.0,0.0,0.0,6.303680419921875,0.0,0.0,-0.12386719882488251,0.0,0.0,70.62946319580078,-1775.3118896484375,-16228.208984375,-695.8425903320312,90.26008605957031,75.2163314819336,44.847755432128906,0.16087816655635834,0.22901102900505066
1731876902392.0,0.0,0.0,-20.0,0.0,0.0,0.0,0.0,0.0,0.0,0.0,0.0,0.0,0.0,0.0,0.0,6.016448974609375,0.0,0.0,-0.12967567145824432,0.0,0.0,-75.727294921875,-1689.4566650390625,-16299.814453125,-1159.865234375,73.28816986083984,-42.69855499267578,44.89556121826172,-0.10556173324584961,0.14258703589439392
1731876902409.0,0.0,0.0,-20.0,0.0,0.0,0.0,0.0,0.0,0.0,0.0,0.0,0.0,0.0,0.0,0.0,5.867828369140625,0.0,0.0,-0.13252592086791992,0.0,0.0,86.66400146484375,-1606.0198974609375,-16320.345703125,-876.8241577148438,-117.09136199951172,149.8662109375,44.879512786865234,0.14624647796154022,0.13875068724155426
1731876902425.0,0.0,0.0,-20.0,0.0,0.0,0.0,0.0,0.0,0.0,0.0,0.0,0.0,0.0,0.0,0.0,5.715972900390625,0.0,0.0,-0.13529828190803528,0.0,0.0,123.98419952392578,-1694.9735107421875,-16423.228515625,-1162.620849609375,-21.16252899169922,-13.403985023498535,45.06256103515625,-0.28440946340560913,-0.39791592955589294
1731876902459.0,0.0,0.0,-20.0,0.0,0.0,0.0,0.0,0.0,0.0,0.0,0.0,0.0,0.0,0.0,0.0,5.560943603515625,0.0,0.0,-0.14081141352653503,0.0,0.0,-72.75669860839844,-1680.990478515625,-16312.802734375,-1016.45556640625,-207.99069213867188,23.32929039001465,44.93809127807617,-0.17386367917060852,0.053368691354990005
1731876902492.0,0.0,0.0,-20.0,0.0,0.0,0.0,0.0,0.0,0.0,0.0,0.0,0.0,0.0,0.0,0.0,5.235107421875,0.0,0.0,-0.14614780247211456,0.0,0.0,14.173325538635254,-1477.459228515625,-16297.234375,-1102.34375,45.30788040161133,-9.758081436157227,45.31772994995117,0.20414315164089203,-0.38205069303512573
1731876902509.0,0.0,0.0,-20.0,0.0,0.0,0.0,0.0,0.0,0.0,0.0,0.0,0.0,0.0,0.0,0.0,5.067626953125,0.0,0.0,-0.1487649828195572,0.0,0.0,25.32915687561035,-1388.68505859375,-16332.7607421875,-1126.0833740234375,-1.587903380393982,-17.204559326171875,45.54365158081055,-0.4191814661026001,0.3288392722606659
1731876902509.0,0.0,0.0,-20.0,0.0,0.0,0.0,0.0,0.0,0.0,0.0,0.0,0.0,0.0,0.0,0.0,5.067626953125,0.0,0.0,-0.1487649828195572,0.0,0.0,25.32915687561035,-1388.68505859375,-16332.7607421875,-1126.0833740234375,-1.587903380393982,-17.204559326171875,45.54365158081055,-0.4191814661026001,0.3288392722606659
1731876902559.0,0.0,0.0,-20.0,0.0,0.0,0.0,0.0,0.0,0.0,0.0,0.0,0.0,0.0,0.0,0.0,4.7237548828125,0.0,0.0,-0.15632793307304382,0.0,0.0,12.14134407043457,-1360.9349365234375,-16416.8125,-943.5404663085938,-48.94561004638672,-63.21285629272461,44.610713958740234,0.06812549382448196,-0.12174951285123825
1731876902576.0,0.0,0.0,-20.0,0.0,0.0,0.0,0.0,0.0,0.0,0.0,0.0,0.0,0.0,0.0,0.0,4.54461669921875,0.0,0.0,-0.15882813930511475,0.0,0.0,11.976473808288574,-1171.5052490234375,-16164.875,-1189.191650390625,45.90700149536133,-84.85890197753906,44.578758239746094,-1.0463883876800537,-0.07014188170433044
1731876902609.0,0.0,0.0,-20.0,0.0,0.0,0.0,0.0,0.0,0.0,0.0,0.0,0.0,0.0,0.0,0.0,4.1778564453125,0.0,0.0,-0.1635524332523346,0.0,0.0,-88.12857055664062,-1063.976318359375,-16345.900390625,-1319.399169921875,-54.43411636352539,26.288068771362305,45.59825897216797,0.1763809621334076,0.050337061285972595
1731876902626.0,0.0,0.0,-20.0,0.0,0.0,0.0,0.0,0.0,0.0,0.0,0.0,0.0,0.0,0.0,0.0,3.990447998046875,0.0,0.0,-0.1658639907836914,0.0,0.0,-7.925624847412109,-1236.3544921875,-16221.40625,-1181.622802734375,121.00090789794922,-37.7743034362793,44.40287780761719,-0.12723904848098755,-0.12127260118722916
1731876902643.0,0.0,0.0,-20.0,0.0,0.0,0.0,0.0,0.0,0.0,0.0,0.0,0.0,0.0,0.0,0.0,3.800384521484375,0.0,0.0,-0.16812916100025177,0.0,0.0,-23.34575080871582,-1079.1407470703125,-16436.130859375,-1407.321533203125,-41.37394332885742,39.994197845458984,45.05609893798828,0.37036043405532837,0.42851048707962036
1731876902676.0,0.0,0.0,-20.0,0.0,0.0,0.0,0.0,0.0,0.0,0.0,0.0,0.0,0.0,0.0,0.0,3.60772705078125,0.0,0.0,-0.17250216007232666,0.0,0.0,70.48560333251953,-892.658447265625,-16223.423828125,-1264.4593505859375,84.81336212158203,-116.85723876953125,45.42567825317383,0.3311949372291565,0.2562209665775299
1731876902709.0,0.0,0.0,-20.0,0.0,0.0,0.0,0.0,0.0,0.0,0.0,0.0,0.0,0.0,0.0,0.0,3.209930419921875,0.0,0.0,-0.17672845721244812,0.0,0.0,90.54678344726562,-943.5137329101562,-16251.22265625,-1259.0013427734375,44.89760971069336,63.839813232421875,44.93355178833008,-0.24687357246875763,-0.563960611820221
1731876902726.0,0.0,0.0,-20.0,0.0,0.0,0.0,0.0,0.0,0.0,0.0,0.0,0.0,0.0,0.0,0.0,3.007415771484375,0.0,0.0,-0.17870832979679108,0.0,0.0,10.662878036499023,-962.4360961914062,-16274.5419921875,-1282.9376220703125,45.5745849609375,-7.166467189788818,44.677635192871094,-0.17677219212055206,-0.26743951439857483
1731876902726.0,0.0,0.0,-20.0,0.0,0.0,0.0,0.0,0.0,0.0,0.0,0.0,0.0,0.0,0.0,0.0,3.007415771484375,0.0,0.0,-0.17870832979679108,0.0,0.0,10.662878036499023,-962.4360961914062,-16274.5419921875,-1282.9376220703125,45.5745849609375,-7.166467189788818,44.677635192871094,-0.17677219212055206,-0.26743951439857483
1731876902776.0,0.0,0.0,-20.0,0.0,0.0,0.0,0.0,0.0,0.0,0.0,0.0,0.0,0.0,0.0,0.0,2.5955810546875,0.0,0.0,-0.18446692824363708,0.0,0.0,129.90234375,-675.196533203125,-16327.3056640625,-1536.501220703125,-87.16815948486328,21.795764923095703,44.9410285949707,0.36753180623054504,0.11012467741966248
1731876902793.0,0.0,0.0,-20.0,0.0,0.0,0.0,0.0,0.0,0.0,0.0,0.0,0.0,0.0,0.0,0.0,2.38421630859375,0.0,0.0,-0.18627575039863586,0.0,0.0,-127.29961395263672,-719.1802978515625,-16235.072265625,-1229.503173828125,-22.20677375793457,79.49006652832031,44.7164306640625,0.29341351985931396,-0.48372095823287964
1731876902826.0,0.0,0.0,-20.0,0.0,0.0,0.0,0.0,0.0,0.0,0.0,0.0,0.0,0.0,0.0,0.0,1.95526123046875,0.0,0.0,-0.18977591395378113,0.0,0.0,92.02777862548828,-563.6107177734375,-16182.3056640625,-1601.298828125,67.16056060791016,-8.45151424407959,45.07366943359375,-0.4693340063095093,-0.043422631919384
1731876902826.0,0.0,0.0,-20.0,0.0,0.0,0.0,0.0,0.0,0.0,0.0,0.0,0.0,0.0,0.0,0.0,1.95526123046875,0.0,0.0,-0.18977591395378113,0.0,0.0,92.02777862548828,-563.6107177734375,-16182.3056640625,-1601.298828125,67.16056060791016,-8.45151424407959,45.07366943359375,-0.4693340063095093,-0.043422631919384
1731876902876.0,0.0,0.0,-20.0,0.0,0.0,0.0,0.0,0.0,0.0,0.0,0.0,0.0,0.0,0.0,0.0,1.518402099609375,0.0,0.0,-0.19458496570587158,0.0,0.0,-241.61282348632812,-589.92822265625,-16303.94140625,-1429.2742919921875,15.365923881530762,19.27133560180664,44.75913619995117,-0.07253378629684448,-0.14778324961662292
1731876902893.0,0.0,0.0,-20.0,0.0,0.0,0.0,0.0,0.0,0.0,0.0,0.0,0.0,0.0,0.0,0.0,1.295440673828125,0.0,0.0,-0.19607718288898468,0.0,0.0,-29.43442153930664,-317.5060119628906,-16283.404296875,-1477.350830078125,39.85980224609375,-85.69001007080078,44.730804443359375,-0.1182822734117508,-0.2020563930273056
1731876902926.0,0.0,0.0,-20.0,0.0,0.0,0.0,0.0,0.0,0.0,0.0,0.0,0.0,0.0,0.0,0.0,0.844390869140625,0.0,0.0,-0.19889910519123077,0.0,0.0,94.48175048828125,-128.5350799560547,-16288.31640625,-1327.70947265625,-33.918182373046875,6.395169734954834,44.682655334472656,-0.26022404432296753,-0.4188339114189148
1731876902926.0,0.0,0.0,-20.0,0.0,0.0,0.0,0.0,0.0,0.0,0.0,0.0,0.0,0.0,0.0,0.0,0.844390869140625,0.0,0.0,-0.19889910519123077,0.0,0.0,94.48175048828125,-128.5350799560547,-16288.31640625,-1327.70947265625,-33.918182373046875,6.395169734954834,44.682655334472656,-0.26022404432296753,-0.4188339114189148
1731876902942.0,0.0,0.0,-20.0,0.0,0.0,0.0,0.0,0.0,0.0,0.0,0.0,0.0,0.0,0.0,0.0,0.616485595703125,0.0,0.0,-0.2002280354499817,0.0,0.0,-51.41310501098633,-118.93057250976562,-16428.990234375,-1299.268798828125,50.252262115478516,8.335232734680176,45.47042465209961,1.1096702814102173,-0.06894316524267197
1731876902993.0,0.0,0.0,-20.0,0.0,0.0,0.0,0.0,0.0,0.0,0.0,0.0,0.0,0.0,0.0,0.0,0.154693603515625,0.0,0.0,-0.20391565561294556,0.0,0.0,19.631990432739258,-85.03453063964844,-16341.6689453125,-1681.036376953125,23.991180419921875,-97.41824340820312,45.12077713012695,0.015856290236115456,-0.4220239818096161
1731876903009.0,0.0,0.0,-20.0,0.0,0.0,0.0,0.0,0.0,0.0,0.0,0.0,0.0,0.0,0.0,0.0,-0.07898193597793579,0.0,0.0,-0.20502805709838867,0.0,0.0,46.80771255493164,94.33493041992188,-16362.4189453125,-1406.449951171875,29.965606689453125,-27.089134216308594,45.289363861083984,-0.2753111720085144,-0.05165393650531769
1731876903026.0,0.0,0.0,-20.0,0.0,0.0,0.0,0.0,0.0,0.0,0.0,0.0,0.0,0.0,0.0,0.0,-0.3139267861843109,0.0,0.0,-0.20608311891555786,0.0,0.0,179.22584533691406,155.14688110351562,-16351.666015625,-1451.0498046875,-48.492919921875,0.07092981785535812,45.08092498779297,-0.5553630590438843,-0.4349428117275238
1731876903043.0,0.0,0.0,-20.0,0.0,0.0,0.0,0.0,0.0,0.0,0.0,0.0,0.0,0.0,0.0,0.0,-0.5500806570053101,0.0,0.0,-0.2070664018392563,0.0,0.0,-109.10060119628906,211.50973510742188,-16475.814453125,-1568.0047607421875,-59.72139358520508,114.0094223022461,45.05445861816406,0.07006491720676422,0.43359532952308655
1731876903093.0,0.0,0.0,-20.0,0.0,0.0,0.0,0.0,0.0,0.0,0.0,0.0,0.0,0.0,0.0,0.0,-1.0267304182052612,0.0,0.0,-0.20970690250396729,0.0,0.0,122.81281280517578,275.0615234375,-16329.7744140625,-1596.8944091796875,72.43978118896484,13.322835922241211,45.353511810302734,-0.07622915506362915,-0.027076514437794685
1731876903109.0,0.0,0.0,-20.0,0.0,0.0,0.0,0.0,0.0,0.0,0.0,0.0,0.0,0.0,0.0,0.0,-1.2670369148254395,0.0,0.0,-0.21046169102191925,0.0,0.0,-0.4517368972301483,317.094970703125,-16272.3994140625,-1478.873779296875,-57.10532760620117,74.96922302246094,44.934139251708984,-0.043917566537857056,0.42205068469047546
1731876903126.0,0.0,0.0,-20.0,0.0,0.0,0.0,0.0,0.0,0.0,0.0,0.0,0.0,0.0,0.0,0.0,-1.508208155632019,0.0,0.0,-0.21117417514324188,0.0,0.0,19.031917572021484,334.6961669921875,-16384.025390625,-1637.2667236328125,-23.322242736816406,-26.963970184326172,45.48470687866211,-0.04406232759356499,-0.45972639322280884
1731876903143.0,0.0,0.0,-20.0,0.0,0.0,0.0,0.0,0.0,0.0,0.0,0.0,0.0,0.0,0.0,0.0,-1.750195860862732,0.0,0.0,-0.21182672679424286,0.0,0.0,-172.69552612304688,495.1513366699219,-16374.0341796875,-1348.209716796875,-32.465911865234375,48.58871078491211,45.04071044921875,0.07952981442213058,-0.1298033893108368
1731876903176.0,0.0,0.0,-20.0,0.0,0.0,0.0,0.0,0.0,0.0,0.0,0.0,0.0,0.0,0.0,0.0,-1.992931604385376,0.0,0.0,-0.21293677389621735,0.0,0.0,83.05875396728516,618.2255249023438,-16410.75,-1898.88330078125,-77.20809173583984,45.274227142333984,45.39512252807617,-0.06464818865060806,-0.02773801051080227
1731876903209.0,0.0,0.0,-20.0,0.0,0.0,0.0,0.0,0.0,0.0,0.0,0.0,0.0,0.0,0.0,0.0,-2.481478214263916,0.0,0.0,-0.2138148695230484,0.0,0.0,-164.1817169189453,536.7935180664062,-16445.291015625,-1573.47705078125,-61.27149200439453,85.6079330444336,45.076499938964844,0.1873496025800705,-0.10685527324676514
1731876903226.0,0.0,0.0,-20.0,0.0,0.0,0.0,0.0,0.0,0.0,0.0,0.0,0.0,0.0,0.0,0.0,-2.726491928100586,0.0,0.0,-0.21416610479354858,0.0,0.0,-32.407798767089844,911.1434936523438,-16473.642578125,-1647.597412109375,163.46636962890625,-27.242746353149414,45.280372619628906,0.021082505583763123,0.09832306951284409
1731876903226.0,0.0,0.0,-20.0,0.0,0.0,0.0,0.0,0.0,0.0,0.0,0.0,0.0,0.0,0.0,0.0,-2.726491928100586,0.0,0.0,-0.21416610479354858,0.0,0.0,-32.407798767089844,911.1434936523438,-16473.642578125,-1647.597412109375,163.46636962890625,-27.242746353149414,45.280372619628906,0.021082505583763123,0.09832306951284409
1731876903276.0,0.0,0.0,-20.0,0.0,0.0,0.0,0.0,0.0,0.0,0.0,0.0,0.0,0.0,0.0,0.0,-3.217656373977661,0.0,0.0,-0.21485702693462372,0.0,0.0,-60.839439392089844,863.7855834960938,-16239.953125,-1339.4844970703125,9.70121955871582,-65.25524139404297,44.891845703125,-0.027521971613168716,-0.10924188792705536
1731876903293.0,0.0,0.0,-20.0,0.0,0.0,0.0,0.0,0.0,0.0,0.0,0.0,0.0,0.0,0.0,0.0,-3.463864326477051,0.0,0.0,-0.2149701565504074,0.0,0.0,-153.13560485839844,1160.4376220703125,-16297.7998046875,-1302.3453369140625,51.01701736450195,8.180530548095703,44.42570114135742,0.3927522599697113,-0.41992220282554626
1731876903309.0,0.0,0.0,-20.0,0.0,0.0,0.0,0.0,0.0,0.0,0.0,0.0,0.0,0.0,0.0,0.0,-3.7102019786834717,0.0,0.0,-0.2150219827890396,0.0,0.0,-24.590471267700195,1033.63037109375,-16384.95703125,-1672.5203857421875,-118.2955093383789,14.085594177246094,44.99174118041992,0.17655958235263824,0.4395756423473358
1731876903326.0,0.0,0.0,-20.0,0.0,0.0,0.0,0.0,0.0,0.0,0.0,0.0,0.0,0.0,0.0,0.0,-3.956599235534668,0.0,0.0,-0.2150139957666397,0.0,0.0,-68.97348022460938,1138.33544921875,-16331.07421875,-1476.6588134765625,-88.54618072509766,59.70515441894531,45.426734924316406,0.3923030495643616,-0.08591833710670471
1731876903343.0,0.0,0.0,-20.0,0.0,0.0,0.0,0.0,0.0,0.0,0.0,0.0,0.0,0.0,0.0,0.0,-4.202986240386963,0.0,0.0,-0.21494713425636292,0.0,0.0,-259.8337097167969,1103.4146728515625,-16428.607421875,-1911.2215576171875,-46.94758987426758,100.32205200195312,45.187538146972656,-0.17941690981388092,-0.17558538913726807
1731876903376.0,0.0,0.0,-20.0,0.0,0.0,0.0,0.0,0.0,0.0,0.0,0.0,0.0,0.0,0.0,0.0,-4.4492974281311035,0.0,0.0,-0.21463359892368317,0.0,0.0,-95.02249145507812,1121.982177734375,-16264.9853515625,-1346.7186279296875,-49.17499542236328,-75.28900146484375,44.981849670410156,0.6052757501602173,0.18618324398994446
1731876903409.0,0.0,0.0,-20.0,0.0,0.0,0.0,0.0,0.0,0.0,0.0,0.0,0.0,0.0,0.0,0.0,-4.940914630889893,0.0,0.0,-0.21408171951770782,0.0,0.0,-107.66990661621094,1431.608154296875,-16259.6884765625,-1526.1453857421875,-18.385377883911133,-39.83187484741211,45.176063537597656,0.30772513151168823,0.03225243091583252
1731876903426.0,0.0,0.0,-20.0,0.0,0.0,0.0,0.0,0.0,0.0,0.0,0.0,0.0,0.0,0.0,0.0,-5.186233997344971,0.0,0.0,-0.21371224522590637,0.0,0.0,-117.31494903564453,1487.0526123046875,-16193.01171875,-1420.219482421875,82.6006088256836,-80.94499969482422,44.8056755065918,-0.36749035120010376,0.24704241752624512
1731876903426.0,0.0,0.0,-20.0,0.0,0.0,0.0,0.0,0.0,0.0,0.0,0.0,0.0,0.0,0.0,0.0,-5.186233997344971,0.0,0.0,-0.21371224522590637,0.0,0.0,-117.31494903564453,1487.0526123046875,-16193.01171875,-1420.219482421875,82.6006088256836,-80.94499969482422,44.8056755065918,-0.36749035120010376,0.24704241752624512
1731876903476.0,0.0,0.0,-20.0,0.0,0.0,0.0,0.0,0.0,0.0,0.0,0.0,0.0,0.0,0.0,0.0,-5.675539970397949,0.0,0.0,-0.21224884688854218,0.0,0.0,9.803403854370117,1721.3065185546875,-16210.3720703125,-1486.081298828125,68.19414520263672,-49.849422454833984,44.75299835205078,0.023101968690752983,0.18819040060043335
1731876903493.0,0.0,0.0,-20.0,0.0,0.0,0.0,0.0,0.0,0.0,0.0,0.0,0.0,0.0,0.0,0.0,-5.918759822845459,0.0,0.0,-0.21164308488368988,0.0,0.0,63.20892333984375,1538.9918212890625,-16348.033203125,-2007.462646484375,3.4675185680389404,83.50362396240234,44.84446716308594,0.04180942103266716,0.05994255840778351
1731876903527.0,0.0,0.0,-20.0,0.0,0.0,0.0,0.0,0.0,0.0,0.0,0.0,0.0,0.0,0.0,0.0,-6.4030537605285645,0.0,0.0,-0.21025970578193665,0.0,0.0,152.9397430419922,1874.62890625,-16335.3349609375,-1640.9560546875,-88.56106567382812,-47.02675247192383,44.9423828125,0.03856425732374191,-0.6630212068557739
1731876903527.0,0.0,0.0,-20.0,0.0,0.0,0.0,0.0,0.0,0.0,0.0,0.0,0.0,0.0,0.0,0.0,-6.4030537605285645,0.0,0.0,-0.21025970578193665,0.0,0.0,152.9397430419922,1874.62890625,-16335.3349609375,-1640.9560546875,-88.56106567382812,-47.02675247192383,44.9423828125,0.03856425732374191,-0.6630212068557739
1731876903576.0,0.0,0.0,-20.0,0.0,0.0,0.0,0.0,0.0,0.0,0.0,0.0,0.0,0.0,0.0,0.0,-6.8840436935424805,0.0,0.0,-0.20775075256824493,0.0,0.0,210.45040893554688,1992.9166259765625,-16222.4296875,-1972.916748046875,-7.864916801452637,58.74291229248047,45.00021743774414,-0.45877477526664734,-0.1620536893606186
1731876903593.0,0.0,0.0,-20.0,0.0,0.0,0.0,0.0,0.0,0.0,0.0,0.0,0.0,0.0,0.0,0.0,-7.122108459472656,0.0,0.0,-0.20678704977035522,0.0,0.0,106.14374542236328,2112.28955078125,-16171.5849609375,-1262.622314453125,-24.946819305419922,11.692688941955566,45.24385452270508,-0.17631924152374268,-0.3928356468677521
1731876903627.0,0.0,0.0,-20.0,0.0,0.0,0.0,0.0,0.0,0.0,0.0,0.0,0.0,0.0,0.0,0.0,-7.594868183135986,0.0,0.0,-0.2047080248594284,0.0,0.0,86.7875747680664,2162.38232421875,-16240.9990234375,-1798.5772705078125,-76.73867797851562,23.543872833251953,45.120506286621094,0.1445939838886261,0.12009265273809433
1731876903627.0,0.0,0.0,-20.0,0.0,0.0,0.0,0.0,0.0,0.0,0.0,0.0,0.0,0.0,0.0,0.0,-7.594868183135986,0.0,0.0,-0.2047080248594284,0.0,0.0,86.7875747680664,2162.38232421875,-16240.9990234375,-1798.5772705078125,-76.73867797851562,23.543872833251953,45.120506286621094,0.1445939838886261,0.12009265273809433
1731876903643.0,0.0,0.0,-20.0,0.0,0.0,0.0,0.0,0.0,0.0,0.0,0.0,0.0,0.0,0.0,0.0,-7.829444885253906,0.0,0.0,-0.2035704255104065,0.0,0.0,46.496395111083984,2331.563720703125,-16400.501953125,-1693.137451171875,-28.399730682373047,-125.1854248046875,45.05622482299805,0.15942059457302094,0.08844740688800812
1731876903693.0,0.0,0.0,-20.0,0.0,0.0,0.0,0.0,0.0,0.0,0.0,0.0,0.0,0.0,0.0,0.0,-8.293221473693848,0.0,0.0,-0.1998608410358429,0.0,0.0,151.61312866210938,2439.82373046875,-16201.3056640625,-1627.6624755859375,62.45199203491211,42.57439422607422,45.29582977294922,-0.08302835375070572,0.24628013372421265
1731876903710.0,0.0,0.0,-20.0,0.0,0.0,0.0,0.0,0.0,0.0,0.0,0.0,0.0,0.0,0.0,0.0,-8.522244453430176,0.0,0.0,-0.19849632680416107,0.0,0.0,-204.0402069091797,2395.855224609375,-16142.484375,-1605.7236328125,-66.86675262451172,-86.92049407958984,45.022254943847656,0.5562471151351929,0.03040926158428192
1731876903727.0,0.0,0.0,-20.0,0.0,0.0,0.0,0.0,0.0,0.0,0.0,0.0,0.0,0.0,0.0,0.0,-8.749704360961914,0.0,0.0,-0.1971069723367691,0.0,0.0,-87.90684509277344,2322.578369140625,-16256.6337890625,-1680.9932861328125,30.081724166870117,-26.561635971069336,44.89255142211914,0.38519781827926636,-0.32104015350341797
1731876903744.0,0.0,0.0,-20.0,0.0,0.0,0.0,0.0,0.0,0.0,0.0,0.0,0.0,0.0,0.0,0.0,-8.975573539733887,0.0,0.0,-0.19564230740070343,0.0,0.0,-46.9150276184082,2662.173583984375,-16193.876953125,-1521.0556640625,-2.0318379402160645,-62.653663635253906,44.80693817138672,-0.19683900475502014,0.22312650084495544
1731876903793.0,0.0,0.0,-20.0,0.0,0.0,0.0,0.0,0.0,0.0,0.0,0.0,0.0,0.0,0.0,0.0,-9.420421600341797,0.0,0.0,-0.1909458488225937,0.0,0.0,66.26780700683594,2728.32275390625,-16137.3095703125,-1624.6119384765625,-51.98479080200195,-81.47927856445312,45.251033782958984,0.30146515369415283,0.23139242827892303
1731876903810.0,0.0,0.0,-20.0,0.0,0.0,0.0,0.0,0.0,0.0,0.0,0.0,0.0,0.0,0.0,0.0,-9.639228820800781,0.0,0.0,-0.1892906278371811,0.0,0.0,-6.581984519958496,2743.94482421875,-16109.0,-1205.5447998046875,2.534816265106201,31.01260757446289,45.344539642333984,-0.31124579906463623,-0.2337673306465149
1731876903827.0,0.0,0.0,-20.0,0.0,0.0,0.0,0.0,0.0,0.0,0.0,0.0,0.0,0.0,0.0,0.0,-9.85614013671875,0.0,0.0,-0.18753263354301453,0.0,0.0,-39.55868911743164,2947.87939453125,-16123.7353515625,-1372.6707763671875,-8.777854919433594,111.54965209960938,45.010009765625,0.03854798898100853,0.12886151671409607
1731876903843.0,0.0,0.0,-20.0,0.0,0.0,0.0,0.0,0.0,0.0,0.0,0.0,0.0,0.0,0.0,0.0,-10.071035385131836,0.0,0.0,-0.1857735514640808,0.0,0.0,89.3587646484375,3007.66064453125,-16265.7236328125,-1182.4322509765625,-60.41210174560547,71.34245300292969,45.1159782409668,-0.21628716588020325,-0.08181401342153549
1731876903876.0,0.0,0.0,-20.0,0.0,0.0,0.0,0.0,0.0,0.0,0.0,0.0,0.0,0.0,0.0,0.0,-10.283917427062988,0.0,0.0,-0.18209058046340942,0.0,0.0,-208.08126831054688,2825.38818359375,-16066.3046875,-1391.0833740234375,-21.216947555541992,11.234033584594727,44.58585739135742,-0.13311634957790375,-0.02169007807970047
1731876903893.0,0.0,0.0,-20.0,0.0,0.0,0.0,0.0,0.0,0.0,0.0,0.0,0.0,0.0,0.0,0.0,-10.49257755279541,0.0,0.0,-0.18013827502727509,0.0,0.0,120.29461669921875,3024.2158203125,-16064.7021484375,-1279.0673828125,-212.98451232910156,-38.04127883911133,44.98395538330078,0.11036749929189682,-0.4832075238227844
1731876903927.0,0.0,0.0,-20.0,0.0,0.0,0.0,0.0,0.0,0.0,0.0,0.0,0.0,0.0,0.0,0.0,-10.90316390991211,0.0,0.0,-0.17612607777118683,0.0,0.0,-140.5426483154297,3084.157958984375,-16074.34375,-1319.67431640625,131.3351287841797,60.94704055786133,45.1900749206543,-0.14943356812000275,0.08871667832136154
1731876903927.0,0.0,0.0,-20.0,0.0,0.0,0.0,0.0,0.0,0.0,0.0,0.0,0.0,0.0,0.0,0.0,-10.90316390991211,0.0,0.0,-0.17612607777118683,0.0,0.0,-140.5426483154297,3084.157958984375,-16074.34375,-1319.67431640625,131.3351287841797,60.94704055786133,45.1900749206543,-0.14943356812000275,0.08871667832136154
1731876903977.0,0.0,0.0,-20.0,0.0,0.0,0.0,0.0,0.0,0.0,0.0,0.0,0.0,0.0,0.0,0.0,-11.304422378540039,0.0,0.0,-0.16971834003925323,0.0,0.0,17.066619873046875,3310.556640625,-15914.5341796875,-1233.01611328125,3.173264980316162,-2.815638542175293,45.003883361816406,-0.09489303827285767,0.2829265594482422
1731876903994.0,0.0,0.0,-20.0,0.0,0.0,0.0,0.0,0.0,0.0,0.0,0.0,0.0,0.0,0.0,0.0,-11.49890422821045,0.0,0.0,-0.16745376586914062,0.0,0.0,78.48934173583984,3262.444580078125,-16174.484375,-1269.5006103515625,-5.434412956237793,-17.84726905822754,45.00918197631836,-0.02777636982500553,0.17967185378074646
1731876904027.0,0.0,0.0,-20.0,0.0,0.0,0.0,0.0,0.0,0.0,0.0,0.0,0.0,0.0,0.0,0.0,-11.880087852478027,0.0,0.0,-0.16288350522518158,0.0,0.0,37.4254150390625,3478.826904296875,-16003.296875,-1276.6014404296875,-39.324745178222656,48.245391845703125,44.93340301513672,0.09643908590078354,-0.1283431500196457
1731876904027.0,0.0,0.0,-20.0,0.0,0.0,0.0,0.0,0.0,0.0,0.0,0.0,0.0,0.0,0.0,0.0,-11.880087852478027,0.0,0.0,-0.16288350522518158,0.0,0.0,37.4254150390625,3478.826904296875,-16003.296875,-1276.6014404296875,-39.324745178222656,48.245391845703125,44.93340301513672,0.09643908590078354,-0.1283431500196457
1731876904044.0,0.0,0.0,-20.0,0.0,0.0,0.0,0.0,0.0,0.0,0.0,0.0,0.0,0.0,0.0,0.0,-12.06673812866211,0.0,0.0,-0.160495787858963,0.0,0.0,-5.421412467956543,3420.19287109375,-15950.486328125,-1073.22216796875,38.24363327026367,-61.3292121887207,45.318809509277344,0.03070828691124916,-0.3518637418746948
1731876904094.0,0.0,0.0,-20.0,0.0,0.0,0.0,0.0,0.0,0.0,0.0,0.0,0.0,0.0,0.0,0.0,-12.42898178100586,0.0,0.0,-0.15313586592674255,0.0,0.0,-206.2920684814453,3586.61181640625,-15833.091796875,-1091.7587890625,-119.98567199707031,-15.513199806213379,45.08250045776367,-0.5726779103279114,0.19758370518684387
1731876904111.0,0.0,0.0,-20.0,0.0,0.0,0.0,0.0,0.0,0.0,0.0,0.0,0.0,0.0,0.0,0.0,-12.604462623596191,0.0,0.0,-0.15057142078876495,0.0,0.0,93.27730560302734,3561.536376953125,-15910.619140625,-1049.092529296875,22.966764450073242,94.5521469116211,44.54358673095703,-0.47735026478767395,0.18027621507644653
1731876904127.0,0.0,0.0,-20.0,0.0,0.0,0.0,0.0,0.0,0.0,0.0,0.0,0.0,0.0,0.0,0.0,-12.777005195617676,0.0,0.0,-0.14802135527133942,0.0,0.0,14.555912017822266,3657.41845703125,-15891.75,-1257.30859375,-59.12717056274414,-18.92306137084961,44.83201599121094,0.03236920386552811,0.018807625398039818
1731876904144.0,0.0,0.0,-20.0,0.0,0.0,0.0,0.0,0.0,0.0,0.0,0.0,0.0,0.0,0.0,0.0,-12.946624755859375,0.0,0.0,-0.14539244771003723,0.0,0.0,89.93740844726562,3586.33984375,-16139.421875,-962.3078002929688,-2.908939838409424,-0.7261418104171753,45.5227165222168,-0.5110260248184204,0.5127918720245361
1731876904194.0,0.0,0.0,-20.0,0.0,0.0,0.0,0.0,0.0,0.0,0.0,0.0,0.0,0.0,0.0,0.0,-13.273722648620605,0.0,0.0,-0.13732528686523438,0.0,0.0,-87.42033386230469,3674.644287109375,-15979.28515625,-861.70751953125,-90.54241943359375,-38.10860824584961,44.606773376464844,0.23155471682548523,-0.2543141841888428
1731876904210.0,0.0,0.0,-20.0,0.0,0.0,0.0,0.0,0.0,0.0,0.0,0.0,0.0,0.0,0.0,0.0,-13.431084632873535,0.0,0.0,-0.13455955684185028,0.0,0.0,65.03860473632812,3869.063720703125,-16017.216796875,-1054.34716796875,17.54322052001953,80.70867156982422,45.06980895996094,-0.05372466892004013,-0.18983270227909088
1731876904227.0,0.0,0.0,-20.0,0.0,0.0,0.0,0.0,0.0,0.0,0.0,0.0,0.0,0.0,0.0,0.0,-13.58527946472168,0.0,0.0,-0.13179820775985718,0.0,0.0,135.69049072265625,3917.217041015625,-15851.328125,-958.6556396484375,-55.629234313964844,-30.871061325073242,45.24333190917969,-0.25416994094848633,0.08173884451389313
1731876904243.0,0.0,0.0,-20.0,0.0,0.0,0.0,0.0,0.0,0.0,0.0,0.0,0.0,0.0,0.0,0.0,-13.736309051513672,0.0,0.0,-0.12893860042095184,0.0,0.0,-76.80207824707031,3820.581298828125,-15830.03125,-903.0140991210938,5.646416664123535,-83.94683074951172,45.44325256347656,0.07264617085456848,0.07122628390789032
1731876904277.0,0.0,0.0,-20.0,0.0,0.0,0.0,0.0,0.0,0.0,0.0,0.0,0.0,0.0,0.0,0.0,-13.884062767028809,0.0,0.0,-0.12304741889238358,0.0,0.0,18.45354461669922,4088.958984375,-15790.216796875,-896.0659790039062,1.597855567932129,23.90422821044922,44.566673278808594,-0.23315981030464172,0.2078007608652115
1731876904310.0,0.0,0.0,-20.0,0.0,0.0,0.0,0.0,0.0,0.0,0.0,0.0,0.0,0.0,0.0,0.0,-14.16266918182373,0.0,0.0,-0.11710365116596222,0.0,0.0,73.08139038085938,3910.380859375,-15902.5625,-1014.4682006835938,32.41371154785156,18.51197052001953,45.14958572387695,-0.13938100636005402,-0.4768661558628082
1731876904327.0,0.0,0.0,-20.0,0.0,0.0,0.0,0.0,0.0,0.0,0.0,0.0,0.0,0.0,0.0,0.0,-14.296857833862305,0.0,0.0,-0.11407144367694855,0.0,0.0,147.54421997070312,4034.75048828125,-15820.9814453125,-902.991943359375,4110.3994140625,19.98261070251465,44.755958557128906,0.257425457239151,-0.5766715407371521
1731876904344.0,0.0,0.0,-20.0,0.0,0.0,0.0,0.0,0.0,0.0,0.0,0.0,0.0,0.0,0.0,0.0,-14.427576065063477,0.0,0.0,-0.11100734770298004,0.0,0.0,88.74092102050781,4116.38525390625,-15820.4130859375,-790.01025390625,-13.29340648651123,113.61222076416016,45.46664047241211,0.06650763750076294,-0.19982798397541046
1731876904377.0,0.0,0.0,-20.0,0.0,0.0,0.0,0.0,0.0,0.0,0.0,0.0,0.0,0.0,0.0,0.0,-14.554780006408691,0.0,0.0,-0.10485563427209854,0.0,0.0,-81.74369812011719,4194.75341796875,-15896.552734375,-906.6741333007812,93.31283569335938,29.376201629638672,45.086639404296875,-0.026497533544898033,-0.22565175592899323
1731876904394.0,0.0,0.0,-20.0,0.0,0.0,0.0,0.0,0.0,0.0,0.0,0.0,0.0,0.0,0.0,0.0,-14.674936294555664,0.0,0.0,-0.1016322523355484,0.0,0.0,116.97927856445312,3903.589111328125,-15933.3056640625,-733.98828125,99.99720764160156,-146.69187927246094,44.62708282470703,0.27734729647636414,0.20039917528629303
1731876904427.0,0.0,0.0,-20.0,0.0,0.0,0.0,0.0,0.0,0.0,0.0,0.0,0.0,0.0,0.0,0.0,-14.904241561889648,0.0,0.0,-0.09528566896915436,0.0,0.0,-21.35144805908203,4172.0556640625,-15917.2294921875,-822.6881713867188,-143.65533447265625,32.56640625,45.097564697265625,0.4275389611721039,-0.07713958621025085
1731876904427.0,0.0,0.0,-20.0,0.0,0.0,0.0,0.0,0.0,0.0,0.0,0.0,0.0,0.0,0.0,0.0,-14.904241561889648,0.0,0.0,-0.09528566896915436,0.0,0.0,-21.35144805908203,4172.0556640625,-15917.2294921875,-822.6881713867188,-143.65533447265625,32.56640625,45.097564697265625,0.4275389611721039,-0.07713958621025085
1731876904477.0,0.0,0.0,-20.0,0.0,0.0,0.0,0.0,0.0,0.0,0.0,0.0,0.0,0.0,0.0,0.0,-15.118934631347656,0.0,0.0,-0.08554699271917343,0.0,0.0,-6.894072532653809,4295.025390625,-15895.52734375,-635.687744140625,-50.92045593261719,33.99130630493164,45.05431365966797,0.01437932439148426,0.17671240866184235
1731876904494.0,0.0,0.0,-20.0,0.0,0.0,0.0,0.0,0.0,0.0,0.0,0.0,0.0,0.0,0.0,0.0,-15.216968536376953,0.0,0.0,-0.08218749612569809,0.0,0.0,-22.187870025634766,4350.94189453125,-15979.1513671875,-631.9713134765625,-176.17608642578125,7.9943647384643555,44.079315185546875,-0.3070521056652069,-0.1448676586151123
1731876904527.0,0.0,0.0,-20.0,0.0,0.0,0.0,0.0,0.0,0.0,0.0,0.0,0.0,0.0,0.0,0.0,-15.401504516601562,0.0,0.0,-0.07557054609060287,0.0,0.0,7.696536064147949,4324.0654296875,-15674.564453125,-594.7464599609375,-40.05937194824219,-172.6284637451172,45.4942512512207,0.06285998970270157,-0.312014102935791
1731876904527.0,0.0,0.0,-20.0,0.0,0.0,0.0,0.0,0.0,0.0,0.0,0.0,0.0,0.0,0.0,0.0,-15.401504516601562,0.0,0.0,-0.07557054609060287,0.0,0.0,7.696536064147949,4324.0654296875,-15674.564453125,-594.7464599609375,-40.05937194824219,-172.6284637451172,45.4942512512207,0.06285998970270157,-0.312014102935791
1731876904577.0,0.0,0.0,-20.0,0.0,0.0,0.0,0.0,0.0,0.0,0.0,0.0,0.0,0.0,0.0,0.0,-15.5708589553833,0.0,0.0,-0.06542984396219254,0.0,0.0,89.59183502197266,4475.13330078125,-15746.62109375,-494.3790283203125,34.68832015991211,-4.82548189163208,45.265472412109375,-0.4628151059150696,0.4521775543689728
1731876904594.0,0.0,0.0,-20.0,0.0,0.0,0.0,0.0,0.0,0.0,0.0,0.0,0.0,0.0,0.0,0.0,-15.645835876464844,0.0,0.0,-0.061995357275009155,0.0,0.0,-75.3843765258789,4239.67333984375,-15803.703125,-513.0731811523438,-21.117109298706055,-0.6578483581542969,44.842655181884766,0.352862685918808,-0.3863375782966614
1731876904611.0,0.0,0.0,-20.0,0.0,0.0,0.0,0.0,0.0,0.0,0.0,0.0,0.0,0.0,0.0,0.0,-15.716875076293945,0.0,0.0,-0.05851827561855316,0.0,0.0,-174.93382263183594,4597.5712890625,-15747.28125,-415.0517272949219,-0.78667151927948,-2.32027006149292,45.19977569580078,-0.41511648893356323,-0.10811314731836319
1731876904627.0,0.0,0.0,-20.0,0.0,0.0,0.0,0.0,0.0,0.0,0.0,0.0,0.0,0.0,0.0,0.0,-15.783931732177734,0.0,0.0,-0.055100709199905396,0.0,0.0,38.682559967041016,4520.578125,-15622.0341796875,-609.2042236328125,-54.216548919677734,-39.325416564941406,45.05131530761719,-0.10536693036556244,0.08779507875442505
1731876904644.0,0.0,0.0,-20.0,0.0,0.0,0.0,0.0,0.0,0.0,0.0,0.0,0.0,0.0,0.0,0.0,-15.84707260131836,0.0,0.0,-0.05156625434756279,0.0,0.0,-94.09934997558594,4395.39208984375,-15648.0517578125,-339.0743408203125,69.41139221191406,49.805599212646484,45.22584533691406,0.5308632254600525,0.12043239176273346
1731876904694.0,0.0,0.0,-20.0,0.0,0.0,0.0,0.0,0.0,0.0,0.0,0.0,0.0,0.0,0.0,0.0,-15.957249641418457,0.0,0.0,-0.04108404740691185,0.0,0.0,110.36019897460938,4527.94091796875,-15738.25390625,-252.1060333251953,-45.19292068481445,-132.05201721191406,44.58171463012695,0.04226638376712799,-0.05897245183587074
1731876904711.0,0.0,0.0,-20.0,0.0,0.0,0.0,0.0,0.0,0.0,0.0,0.0,0.0,0.0,0.0,0.0,-16.00432777404785,0.0,0.0,-0.037522848695516586,0.0,0.0,-40.390655517578125,4386.955078125,-15688.0703125,-278.4986267089844,20.313608169555664,-22.413442611694336,45.068050384521484,0.13794586062431335,0.23489932715892792
1731876904728.0,0.0,0.0,-20.0,0.0,0.0,0.0,0.0,0.0,0.0,0.0,0.0,0.0,0.0,0.0,0.0,-16.047327041625977,0.0,0.0,-0.034002844244241714,0.0,0.0,-28.15974998474121,4509.64306640625,-15633.0322265625,-154.55953979492188,72.01514434814453,-39.7637825012207,44.680419921875,0.14053188264369965,0.11181977391242981
1731876904744.0,0.0,0.0,-20.0,0.0,0.0,0.0,0.0,0.0,0.0,0.0,0.0,0.0,0.0,0.0,0.0,-16.086288452148438,0.0,0.0,-0.030473465099930763,0.0,0.0,36.0292854309082,4553.07568359375,-15768.720703125,-154.01234436035156,-44.45619201660156,24.99161148071289,44.96370315551758,-0.26417917013168335,-0.7738989591598511
1731876904778.0,0.0,0.0,-20.0,0.0,0.0,0.0,0.0,0.0,0.0,0.0,0.0,0.0,0.0,0.0,0.0,-16.121206283569336,0.0,0.0,-0.023338302969932556,0.0,0.0,-35.11704635620117,4474.1474609375,-15924.5107421875,-113.26103973388672,-13.90423583984375,-109.78378295898438,45.53004455566406,0.5143805146217346,0.040762949734926224
1731876904811.0,0.0,0.0,-20.0,0.0,0.0,0.0,0.0,0.0,0.0,0.0,0.0,0.0,0.0,0.0,0.0,-16.170595169067383,0.0,0.0,-0.016229381784796715,0.0,0.0,-132.64556884765625,4475.0546875,-15874.7470703125,-77.5428237915039,34.938758850097656,81.48221588134766,44.683563232421875,0.2798183858394623,-0.0176971685141325
1731876904828.0,0.0,0.0,-20.0,0.0,0.0,0.0,0.0,0.0,0.0,0.0,0.0,0.0,0.0,0.0,0.0,-16.189193725585938,0.0,0.0,-0.012615314684808254,0.0,0.0,5.929044723510742,4577.3623046875,-15746.630859375,-53.45748519897461,-103.74888610839844,14.353912353515625,45.24632263183594,-0.5143835544586182,-0.17974254488945007
1731876904844.0,0.0,0.0,-20.0,0.0,0.0,0.0,0.0,0.0,0.0,0.0,0.0,0.0,0.0,0.0,0.0,-16.203651428222656,0.0,0.0,-0.009050118736922741,0.0,0.0,3.774116039276123,4462.6591796875,-15665.3515625,13.747634887695312,52.383056640625,-8.114859580993652,44.7707405090332,-0.16369178891181946,0.052346330136060715
1731876904878.0,0.0,0.0,-20.0,0.0,0.0,0.0,0.0,0.0,0.0,0.0,0.0,0.0,0.0,0.0,0.0,-16.214021682739258,0.0,0.0,-0.0018607331439852715,0.0,0.0,6.107676982879639,4585.59912109375,-15775.5185546875,41.159080505371094,44.391822814941406,-114.968505859375,44.41767501831055,0.03896814584732056,-0.05868877097964287
1731876904911.0,0.0,0.0,-20.0,0.0,0.0,0.0,0.0,0.0,0.0,0.0,0.0,0.0,0.0,0.0,0.0,-16.214195251464844,0.0,0.0,0.005278253462165594,0.0,0.0,8.208417892456055,4528.10009765625,-15694.9052734375,-53.49005126953125,85.8558120727539,38.61518478393555,45.14972686767578,-0.14190606772899628,0.1758020967245102
1731876904928.0,0.0,0.0,-20.0,0.0,0.0,0.0,0.0,0.0,0.0,0.0,0.0,0.0,0.0,0.0,0.0,-16.208148956298828,0.0,0.0,0.008846056647598743,0.0,0.0,74.09173583984375,4594.69921875,-15869.484375,110.57197570800781,34.3378791809082,-24.8271541595459,45.05185317993164,-0.34461697936058044,-0.19920238852500916
1731876904928.0,0.0,0.0,-20.0,0.0,0.0,0.0,0.0,0.0,0.0,0.0,0.0,0.0,0.0,0.0,0.0,-16.208148956298828,0.0,0.0,0.008846056647598743,0.0,0.0,74.09173583984375,4594.69921875,-15869.484375,110.57197570800781,34.3378791809082,-24.8271541595459,45.05185317993164,-0.34461697936058044,-0.19920238852500916
1731876904978.0,0.0,0.0,-20.0,0.0,0.0,0.0,0.0,0.0,0.0,0.0,0.0,0.0,0.0,0.0,0.0,-16.183757781982422,0.0,0.0,0.019609324634075165,0.0,0.0,-34.24333190917969,4567.27783203125,-15759.177734375,138.8444061279297,54.816402435302734,93.67235565185547,44.77694320678711,0.37695401906967163,-0.60584557056427
1731876904994.0,0.0,0.0,-20.0,0.0,0.0,0.0,0.0,0.0,0.0,0.0,0.0,0.0,0.0,0.0,0.0,-16.161285400390625,0.0,0.0,0.023135259747505188,0.0,0.0,68.29194641113281,4386.73583984375,-15811.97265625,111.41845703125,-123.225830078125,3.2788119316101074,44.771358489990234,-0.16114552319049835,-0.22168196737766266
1731876905011.0,0.0,0.0,-20.0,0.0,0.0,0.0,0.0,0.0,0.0,0.0,0.0,0.0,0.0,0.0,0.0,-16.13477325439453,0.0,0.0,0.026759089902043343,0.0,0.0,-90.64753723144531,4650.07861328125,-15781.4619140625,200.0051727294922,53.05109405517578,28.953250885009766,44.88031005859375,-0.005858580116182566,0.23949919641017914
1731876905028.0,0.0,0.0,-20.0,0.0,0.0,0.0,0.0,0.0,0.0,0.0,0.0,0.0,0.0,0.0,0.0,-16.104108810424805,0.0,0.0,0.030271274968981743,0.0,0.0,-46.03213119506836,4396.88134765625,-15869.47265625,219.35987854003906,-73.89865112304688,62.066566467285156,44.680335998535156,0.2859856188297272,-0.36231398582458496
1731876905044.0,0.0,0.0,-20.0,0.0,0.0,0.0,0.0,0.0,0.0,0.0,0.0,0.0,0.0,0.0,0.0,-16.069419860839844,0.0,0.0,0.033801157027482986,0.0,0.0,-61.56865310668945,4507.1787109375,-15663.017578125,257.9795227050781,44.76774978637695,-27.798141479492188,45.12074279785156,-0.19952362775802612,0.05005080997943878
1731876905094.0,0.0,0.0,-20.0,0.0,0.0,0.0,0.0,0.0,0.0,0.0,0.0,0.0,0.0,0.0,0.0,-15.983805656433105,0.0,0.0,0.044433772563934326,0.0,0.0,-26.431652069091797,4331.55517578125,-15688.4541015625,353.8594665527344,-22.45816993713379,107.573486328125,45.272186279296875,-0.25665023922920227,-0.29141321778297424
1731876905111.0,0.0,0.0,-20.0,0.0,0.0,0.0,0.0,0.0,0.0,0.0,0.0,0.0,0.0,0.0,0.0,-15.932891845703125,0.0,0.0,0.04792020842432976,0.0,0.0,-131.97813415527344,4479.2255859375,-15618.3125,361.89227294921875,-40.339569091796875,-57.128639221191406,45.09117889404297,-0.22066383063793182,-0.7267062067985535
1731876905128.0,0.0,0.0,-20.0,0.0,0.0,0.0,0.0,0.0,0.0,0.0,0.0,0.0,0.0,0.0,0.0,-15.877978324890137,0.0,0.0,0.05139343813061714,0.0,0.0,183.53416442871094,4563.70263671875,-15737.6455078125,421.520263671875,-6.315556049346924,91.22972106933594,44.835060119628906,-0.2281653881072998,-0.16407416760921478
1731876905144.0,0.0,0.0,-20.0,0.0,0.0,0.0,0.0,0.0,0.0,0.0,0.0,0.0,0.0,0.0,0.0,-15.819087028503418,0.0,0.0,0.054852504283189774,0.0,0.0,73.00444030761719,4442.09521484375,-15836.271484375,410.0298767089844,3.803532600402832,11.86939811706543,44.735557556152344,-0.2587602734565735,0.0035914909094572067
1731876905194.0,0.0,0.0,-20.0,0.0,0.0,0.0,0.0,0.0,0.0,0.0,0.0,0.0,0.0,0.0,0.0,-15.685410499572754,0.0,0.0,0.0652102455496788,0.0,0.0,22.25056266784668,4226.08935546875,-15736.19921875,464.3973693847656,12.784595489501953,-9.218217849731445,45.391666412353516,-0.034343525767326355,-0.05861624330282211
1731876905211.0,0.0,0.0,-20.0,0.0,0.0,0.0,0.0,0.0,0.0,0.0,0.0,0.0,0.0,0.0,0.0,-15.610686302185059,0.0,0.0,0.06862764060497284,0.0,0.0,78.39627838134766,4348.25927734375,-15721.73046875,558.3411254882812,-79.55812072753906,-34.85405731201172,44.90856170654297,-0.4332387447357178,0.014228767715394497
1731876905228.0,0.0,0.0,-20.0,0.0,0.0,0.0,0.0,0.0,0.0,0.0,0.0,0.0,0.0,0.0,0.0,-15.53204345703125,0.0,0.0,0.072025828063488,0.0,0.0,110.53726959228516,4491.9833984375,-15742.44140625,434.8143615722656,22.726675033569336,-15.423494338989258,44.53372573852539,-0.3534732758998871,0.6826971173286438
1731876905245.0,0.0,0.0,-20.0,0.0,0.0,0.0,0.0,0.0,0.0,0.0,0.0,0.0,0.0,0.0,0.0,-15.449508666992188,0.0,0.0,0.07540387660264969,0.0,0.0,-261.80078125,4289.72216796875,-15748.0087890625,471.7807922363281,50.2592887878418,-54.889244079589844,45.47052764892578,0.080662302672863,0.18053527176380157
1731876905295.0,0.0,0.0,-20.0,0.0,0.0,0.0,0.0,0.0,0.0,0.0,0.0,0.0,0.0,0.0,0.0,-15.269055366516113,0.0,0.0,0.08535957336425781,0.0,0.0,-12.649825096130371,4342.67333984375,-15820.970703125,670.1804809570312,-90.05103302001953,-44.396175384521484,44.58618927001953,-0.2570239305496216,-0.41958802938461304
1731876905311.0,0.0,0.0,-20.0,0.0,0.0,0.0,0.0,0.0,0.0,0.0,0.0,0.0,0.0,0.0,0.0,-15.171241760253906,0.0,0.0,0.08864801377058029,0.0,0.0,-88.99700927734375,4136.29541015625,-15798.517578125,589.8623046875,-154.1915283203125,112.86454010009766,44.297142028808594,-0.3716660141944885,-0.02265346236526966
1731876905328.0,0.0,0.0,-20.0,0.0,0.0,0.0,0.0,0.0,0.0,0.0,0.0,0.0,0.0,0.0,0.0,-15.069656372070312,0.0,0.0,0.0918879359960556,0.0,0.0,56.16452407836914,4185.78076171875,-15803.330078125,640.7432250976562,-4.364628791809082,-74.20520782470703,45.26021957397461,-0.007962225936353207,-0.117471843957901
1731876905345.0,0.0,0.0,-20.0,0.0,0.0,0.0,0.0,0.0,0.0,0.0,0.0,0.0,0.0,0.0,0.0,-14.964364051818848,0.0,0.0,0.09512607008218765,0.0,0.0,-46.19929122924805,4190.88916015625,-15811.48046875,839.6627807617188,13.810308456420898,21.425329208374023,45.00693893432617,-0.4211992919445038,0.33428406715393066
1731876905378.0,0.0,0.0,-20.0,0.0,0.0,0.0,0.0,0.0,0.0,0.0,0.0,0.0,0.0,0.0,0.0,-14.855356216430664,0.0,0.0,0.10152164101600647,0.0,0.0,-25.03795051574707,4118.8017578125,-15833.0908203125,762.7775268554688,-11.299707412719727,28.426448822021484,44.744895935058594,-0.21465052664279938,0.07837946712970734
1731876905395.0,0.0,0.0,-20.0,0.0,0.0,0.0,0.0,0.0,0.0,0.0,0.0,0.0,0.0,0.0,0.0,-14.739022254943848,0.0,0.0,0.10463141649961472,0.0,0.0,106.97784423828125,4210.482421875,-15818.9013671875,849.1012573242188,-42.84360122680664,31.50433921813965,45.423824310302734,0.14062397181987762,-0.39469003677368164
1731876905428.0,0.0,0.0,-20.0,0.0,0.0,0.0,0.0,0.0,0.0,0.0,0.0,0.0,0.0,0.0,0.0,-14.495638847351074,0.0,0.0,0.110854871571064,0.0,0.0,67.83539581298828,3969.70556640625,-15807.74609375,894.5222778320312,-79.32984161376953,-39.73849105834961,44.452640533447266,0.17026671767234802,-0.04000358283519745
1731876905428.0,0.0,0.0,-20.0,0.0,0.0,0.0,0.0,0.0,0.0,0.0,0.0,0.0,0.0,0.0,0.0,-14.495638847351074,0.0,0.0,0.110854871571064,0.0,0.0,67.83539581298828,3969.70556640625,-15807.74609375,894.5222778320312,-79.32984161376953,-39.73849105834961,44.452640533447266,0.17026671767234802,-0.04000358283519745
1731876905445.0,0.0,0.0,-20.0,0.0,0.0,0.0,0.0,0.0,0.0,0.0,0.0,0.0,0.0,0.0,0.0,-14.368609428405762,0.0,0.0,0.11389826238155365,0.0,0.0,6.831879138946533,3954.716796875,-15858.51171875,874.1954956054688,50.209754943847656,-82.89143371582031,44.77046585083008,-0.407120019197464,0.10868440568447113
1731876905495.0,0.0,0.0,-20.0,0.0,0.0,0.0,0.0,0.0,0.0,0.0,0.0,0.0,0.0,0.0,0.0,-14.10063362121582,0.0,0.0,0.12287986278533936,0.0,0.0,-22.477832794189453,3950.4169921875,-15965.1337890625,956.35791015625,92.32487487792969,105.06401062011719,45.420928955078125,-0.05870601534843445,0.1889050304889679
1731876905511.0,0.0,0.0,-20.0,0.0,0.0,0.0,0.0,0.0,0.0,0.0,0.0,0.0,0.0,0.0,0.0,-13.959822654724121,0.0,0.0,0.1257709562778473,0.0,0.0,9.976944923400879,3834.947509765625,-15831.25,882.6953735351562,80.12169647216797,-88.98057556152344,44.743839263916016,0.18451093137264252,-0.44741904735565186
1731876905528.0,0.0,0.0,-20.0,0.0,0.0,0.0,0.0,0.0,0.0,0.0,0.0,0.0,0.0,0.0,0.0,-13.81570053100586,0.0,0.0,0.12869098782539368,0.0,0.0,93.8241958618164,3713.87451171875,-15838.3330078125,983.7650756835938,-104.34337615966797,81.15689086914062,45.07335662841797,-0.1418507695198059,-0.4982825219631195
1731876905544.0,0.0,0.0,-20.0,0.0,0.0,0.0,0.0,0.0,0.0,0.0,0.0,0.0,0.0,0.0,0.0,-13.668231964111328,0.0,0.0,0.13151220977306366,0.0,0.0,77.34244537353516,3975.616943359375,-15894.48828125,941.1082763671875,-42.997406005859375,59.91143798828125,45.07673645019531,-0.3032905161380768,0.2527264952659607
1731876905578.0,0.0,0.0,-20.0,0.0,0.0,0.0,0.0,0.0,0.0,0.0,0.0,0.0,0.0,0.0,0.0,-13.517529487609863,0.0,0.0,0.13718828558921814,0.0,0.0,-90.59169006347656,3647.599365234375,-15870.4609375,977.0228271484375,10.044257164001465,-100.8153076171875,45.03083038330078,-0.06466230750083923,-0.28643307089805603
1731876905612.0,0.0,0.0,-20.0,0.0,0.0,0.0,0.0,0.0,0.0,0.0,0.0,0.0,0.0,0.0,0.0,-13.200034141540527,0.0,0.0,0.1426289677619934,0.0,0.0,-17.514087677001953,3553.498046875,-15809.158203125,1243.6568603515625,56.520381927490234,3.81437611579895,44.9067497253418,0.4951516091823578,-0.07792679220438004
1731876905628.0,0.0,0.0,-20.0,0.0,0.0,0.0,0.0,0.0,0.0,0.0,0.0,0.0,0.0,0.0,0.0,-13.036593437194824,0.0,0.0,0.1452805995941162,0.0,0.0,230.00653076171875,3713.999267578125,-16060.0849609375,997.7606201171875,-126.56745910644531,6.240978717803955,44.704410552978516,-0.35486963391304016,0.3970845639705658
1731876905628.0,0.0,0.0,-20.0,0.0,0.0,0.0,0.0,0.0,0.0,0.0,0.0,0.0,0.0,0.0,0.0,-13.036593437194824,0.0,0.0,0.1452805995941162,0.0,0.0,230.00653076171875,3713.999267578125,-16060.0849609375,997.7606201171875,-126.56745910644531,6.240978717803955,44.704410552978516,-0.35486963391304016,0.3970845639705658
1731876905678.0,0.0,0.0,-20.0,0.0,0.0,0.0,0.0,0.0,0.0,0.0,0.0,0.0,0.0,0.0,0.0,-12.700642585754395,0.0,0.0,0.15301087498664856,0.0,0.0,28.87148666381836,3569.333740234375,-16032.8837890625,1473.5592041015625,31.791547775268555,-17.40431785583496,44.91146469116211,-0.062391459941864014,0.1357170045375824
1731876905695.0,0.0,0.0,-20.0,0.0,0.0,0.0,0.0,0.0,0.0,0.0,0.0,0.0,0.0,0.0,0.0,-12.525303840637207,0.0,0.0,0.15553401410579681,0.0,0.0,84.11946868896484,3533.07861328125,-15958.6298828125,1173.447509765625,71.18077087402344,-39.33451461791992,44.90403366088867,-0.18963371217250824,0.42229411005973816
1731876905728.0,0.0,0.0,-20.0,0.0,0.0,0.0,0.0,0.0,0.0,0.0,0.0,0.0,0.0,0.0,0.0,-12.166007041931152,0.0,0.0,0.16039475798606873,0.0,0.0,120.9666519165039,3492.255615234375,-15986.7138671875,1164.3011474609375,-0.4238685667514801,-59.000099182128906,44.62057876586914,0.18101784586906433,-0.6285150647163391
1731876905728.0,0.0,0.0,-20.0,0.0,0.0,0.0,0.0,0.0,0.0,0.0,0.0,0.0,0.0,0.0,0.0,-12.166007041931152,0.0,0.0,0.16039475798606873,0.0,0.0,120.9666519165039,3492.255615234375,-15986.7138671875,1164.3011474609375,-0.4238685667514801,-59.000099182128906,44.62057876586914,0.18101784586906433,-0.6285150647163391
1731876905779.0,0.0,0.0,-20.0,0.0,0.0,0.0,0.0,0.0,0.0,0.0,0.0,0.0,0.0,0.0,0.0,-11.795711517333984,0.0,0.0,0.16737501323223114,0.0,0.0,-192.2447967529297,3515.58837890625,-16023.349609375,1220.8448486328125,-52.79795455932617,-26.147151947021484,44.99190902709961,-0.3503202497959137,-0.41409263014793396
1731876905795.0,0.0,0.0,-20.0,0.0,0.0,0.0,0.0,0.0,0.0,0.0,0.0,0.0,0.0,0.0,0.0,-11.603912353515625,0.0,0.0,0.16960901021957397,0.0,0.0,-69.53799438476562,3497.123291015625,-16089.3564453125,1277.5767822265625,-19.495820999145508,43.431270599365234,45.36885452270508,0.17259006202220917,-0.5394544005393982
1731876905812.0,0.0,0.0,-20.0,0.0,0.0,0.0,0.0,0.0,0.0,0.0,0.0,0.0,0.0,0.0,0.0,-11.409554481506348,0.0,0.0,0.1717955470085144,0.0,0.0,-22.553627014160156,3209.43359375,-16085.033203125,1430.03125,7.026385307312012,56.71565246582031,45.10063552856445,0.5653255581855774,-0.23506031930446625
1731876905829.0,0.0,0.0,-20.0,0.0,0.0,0.0,0.0,0.0,0.0,0.0,0.0,0.0,0.0,0.0,0.0,-11.212692260742188,0.0,0.0,0.17391861975193024,0.0,0.0,112.32966613769531,3150.847900390625,-16014.18359375,1549.052734375,-50.588356018066406,-13.312081336975098,44.82549285888672,-0.3062101900577545,0.4088839292526245
1731876905845.0,0.0,0.0,-20.0,0.0,0.0,0.0,0.0,0.0,0.0,0.0,0.0,0.0,0.0,0.0,0.0,-11.013396263122559,0.0,0.0,0.1760239154100418,0.0,0.0,87.01647186279297,2975.68505859375,-16078.49609375,1355.9752197265625,-9.310373306274414,3.780724048614502,44.83662414550781,0.32759031653404236,-0.09023041278123856
1731876905895.0,0.0,0.0,-20.0,0.0,0.0,0.0,0.0,0.0,0.0,0.0,0.0,0.0,0.0,0.0,0.0,-10.605391502380371,0.0,0.0,0.1819818615913391,0.0,0.0,40.0142822265625,2929.48779296875,-16086.560546875,1289.48681640625,16.189680099487305,-18.505464553833008,45.447750091552734,-0.441532701253891,0.8295883536338806
1731876905912.0,0.0,0.0,-20.0,0.0,0.0,0.0,0.0,0.0,0.0,0.0,0.0,0.0,0.0,0.0,0.0,-10.396856307983398,0.0,0.0,0.18384458124637604,0.0,0.0,123.09972381591797,2932.14501953125,-16296.580078125,1493.8631591796875,-50.70549774169922,-37.55064392089844,45.4227180480957,0.28757086396217346,-0.10472733527421951
1731876905929.0,0.0,0.0,-20.0,0.0,0.0,0.0,0.0,0.0,0.0,0.0,0.0,0.0,0.0,0.0,0.0,-10.186185836791992,0.0,0.0,0.18569710850715637,0.0,0.0,-124.33300018310547,2890.93701171875,-16250.3681640625,1071.0733642578125,38.90618133544922,-58.725852966308594,44.9030876159668,0.013296985067427158,-0.1419253796339035
1731876905945.0,0.0,0.0,-20.0,0.0,0.0,0.0,0.0,0.0,0.0,0.0,0.0,0.0,0.0,0.0,0.0,-9.97339153289795,0.0,0.0,0.1874712109565735,0.0,0.0,170.59371948242188,2879.1015625,-16076.142578125,1421.239501953125,55.34916687011719,71.8460922241211,44.866302490234375,-0.10883179306983948,0.472260445356369
1731876905995.0,0.0,0.0,-20.0,0.0,0.0,0.0,0.0,0.0,0.0,0.0,0.0,0.0,0.0,0.0,0.0,-9.539852142333984,0.0,0.0,0.19245824217796326,0.0,0.0,-57.173927307128906,2702.894287109375,-16183.375,1408.59814453125,119.02314758300781,-34.72894287109375,44.43843078613281,-0.5969653725624084,0.13421984016895294
1731876906012.0,0.0,0.0,-20.0,0.0,0.0,0.0,0.0,0.0,0.0,0.0,0.0,0.0,0.0,0.0,0.0,-9.31931209564209,0.0,0.0,0.1940802037715912,0.0,0.0,-109.85301971435547,2626.3857421875,-16222.6220703125,1490.888671875,118.78814697265625,-83.17237091064453,44.996299743652344,0.27386876940727234,-0.34694817662239075
1731876906029.0,0.0,0.0,-20.0,0.0,0.0,0.0,0.0,0.0,0.0,0.0,0.0,0.0,0.0,0.0,0.0,-9.096911430358887,0.0,0.0,0.19559019804000854,0.0,0.0,-85.85082244873047,2611.03662109375,-16448.26953125,1416.0535888671875,12.018077850341797,-5.976978302001953,45.21274185180664,-0.5430970191955566,-0.25368961691856384
1731876906045.0,0.0,0.0,-20.0,0.0,0.0,0.0,0.0,0.0,0.0,0.0,0.0,0.0,0.0,0.0,0.0,-8.872780799865723,0.0,0.0,0.19702525436878204,0.0,0.0,-120.23072052001953,2457.537353515625,-16292.060546875,1437.8604736328125,6.376612663269043,-34.22220993041992,44.828433990478516,-0.22708962857723236,0.14142946898937225
1731876906079.0,0.0,0.0,-20.0,0.0,0.0,0.0,0.0,0.0,0.0,0.0,0.0,0.0,0.0,0.0,0.0,-8.647008895874023,0.0,0.0,0.19981451332569122,0.0,0.0,100.36705017089844,2490.44189453125,-16433.501953125,1510.2979736328125,-109.16590118408203,22.308834075927734,44.54805374145508,0.027885867282748222,-0.05340667441487312
1731876906112.0,0.0,0.0,-20.0,0.0,0.0,0.0,0.0,0.0,0.0,0.0,0.0,0.0,0.0,0.0,0.0,-8.187577247619629,0.0,0.0,0.20235037803649902,0.0,0.0,-94.3451919555664,2147.8486328125,-16215.994140625,1538.4422607421875,15.82005500793457,-114.98543548583984,44.75545883178711,-0.1341864913702011,-0.25679975748062134
1731876906129.0,0.0,0.0,-20.0,0.0,0.0,0.0,0.0,0.0,0.0,0.0,0.0,0.0,0.0,0.0,0.0,-7.955699443817139,0.0,0.0,0.2035384327173233,0.0,0.0,-8.02800178527832,2243.5869140625,-16306.6416015625,1227.9681396484375,-108.92601013183594,-69.99871826171875,45.16510009765625,-0.4500969648361206,-0.5306245684623718
1731876906145.0,0.0,0.0,-20.0,0.0,0.0,0.0,0.0,0.0,0.0,0.0,0.0,0.0,0.0,0.0,0.0,-7.722463130950928,0.0,0.0,0.2046615183353424,0.0,0.0,1.0215184688568115,2156.64501953125,-16056.59375,1455.496826171875,60.31148910522461,3.421921730041504,45.19487762451172,-0.10716468840837479,-0.2843760550022125
1731876906179.0,0.0,0.0,-20.0,0.0,0.0,0.0,0.0,0.0,0.0,0.0,0.0,0.0,0.0,0.0,0.0,-7.48793888092041,0.0,0.0,0.20675261318683624,0.0,0.0,-69.74261474609375,2087.296630859375,-16325.71875,1496.577392578125,-26.2456111907959,31.930091857910156,44.733428955078125,0.547775149345398,0.3049146234989166
1731876906212.0,0.0,0.0,-20.0,0.0,0.0,0.0,0.0,0.0,0.0,0.0,0.0,0.0,0.0,0.0,0.0,-7.012998580932617,0.0,0.0,0.20861242711544037,0.0,0.0,-47.58733367919922,2038.3050537109375,-16325.701171875,1449.33935546875,-32.36417007446289,-54.664466857910156,45.06221008300781,0.1507159322500229,0.18166355788707733
1731876906229.0,0.0,0.0,-20.0,0.0,0.0,0.0,0.0,0.0,0.0,0.0,0.0,0.0,0.0,0.0,0.0,-6.773946285247803,0.0,0.0,0.20944902300834656,0.0,0.0,18.622129440307617,1896.9952392578125,-16329.15234375,1343.06884765625,31.969587326049805,2.4464266300201416,45.106021881103516,0.373030424118042,0.015036645345389843
1731876906246.0,0.0,0.0,-20.0,0.0,0.0,0.0,0.0,0.0,0.0,0.0,0.0,0.0,0.0,0.0,0.0,-6.533934593200684,0.0,0.0,0.2102333903312683,0.0,0.0,258.3192443847656,1651.38623046875,-16178.7568359375,1591.5458984375,26.481708526611328,-85.623779296875,44.83675765991211,-0.03853525221347809,-0.04262738674879074
1731876906279.0,0.0,0.0,-20.0,0.0,0.0,0.0,0.0,0.0,0.0,0.0,0.0,0.0,0.0,0.0,0.0,-6.293025493621826,0.0,0.0,0.21162551641464233,0.0,0.0,-159.18800354003906,2006.4503173828125,-16368.28515625,1517.0479736328125,99.8139877319336,-1.626766324043274,44.84757614135742,0.5191040635108948,0.25072455406188965
1731876906296.0,0.0,0.0,-20.0,0.0,0.0,0.0,0.0,0.0,0.0,0.0,0.0,0.0,0.0,0.0,0.0,-6.050519943237305,0.0,0.0,0.2122287005186081,0.0,0.0,-45.503501892089844,1806.5364990234375,-16531.234375,1525.7393798828125,-82.1668930053711,71.78690338134766,44.8778190612793,-0.12040843814611435,0.5485267043113708
1731876906329.0,0.0,0.0,-20.0,0.0,0.0,0.0,0.0,0.0,0.0,0.0,0.0,0.0,0.0,0.0,0.0,-5.563499450683594,0.0,0.0,0.21326276659965515,0.0,0.0,49.64656448364258,1578.7257080078125,-16263.6689453125,1583.448974609375,-119.5866928100586,83.89372253417969,44.917518615722656,-0.439730167388916,-0.2401122897863388
1731876906346.0,0.0,0.0,-20.0,0.0,0.0,0.0,0.0,0.0,0.0,0.0,0.0,0.0,0.0,0.0,0.0,-5.319118499755859,0.0,0.0,0.21368959546089172,0.0,0.0,-164.6800994873047,1449.097412109375,-16182.6513671875,1498.46630859375,99.52471160888672,-78.26594543457031,45.45854187011719,0.3270808756351471,0.4132022559642792
1731876906363.0,0.0,0.0,-20.0,0.0,0.0,0.0,0.0,0.0,0.0,0.0,0.0,0.0,0.0,0.0,0.0,-5.074248313903809,0.0,0.0,0.21406249701976776,0.0,0.0,163.32347106933594,1361.877685546875,-16328.54296875,1545.75830078125,41.55778884887695,8.550118446350098,45.31359100341797,0.09052994847297668,-0.2166954129934311
1731876906396.0,0.0,0.0,-20.0,0.0,0.0,0.0,0.0,0.0,0.0,0.0,0.0,0.0,0.0,0.0,0.0,-4.828950881958008,0.0,0.0,0.2146211564540863,0.0,0.0,-33.359466552734375,1375.1173095703125,-16487.41796875,1585.615234375,-48.54270935058594,13.261757850646973,44.47842025756836,-0.23043251037597656,0.12804986536502838
1731876906429.0,0.0,0.0,-20.0,0.0,0.0,0.0,0.0,0.0,0.0,0.0,0.0,0.0,0.0,0.0,0.0,-4.336857318878174,0.0,0.0,0.21494150161743164,0.0,0.0,-228.0965118408203,1334.0142822265625,-16263.00390625,1956.6251220703125,27.633516311645508,5.353729248046875,44.783477783203125,-0.07682997733354568,0.7866837978363037
1731876906446.0,0.0,0.0,-20.0,0.0,0.0,0.0,0.0,0.0,0.0,0.0,0.0,0.0,0.0,0.0,0.0,-4.090551853179932,0.0,0.0,0.215012326836586,0.0,0.0,-51.792598724365234,1039.4510498046875,-16221.2958984375,1702.5350341796875,6.968347072601318,-94.91553497314453,44.94215774536133,0.09329985827207565,-0.3179323375225067
1731876906462.0,0.0,0.0,-20.0,0.0,0.0,0.0,0.0,0.0,0.0,0.0,0.0,0.0,0.0,0.0,0.0,-3.8441667556762695,0.0,0.0,0.21502329409122467,0.0,0.0,-258.7742614746094,1225.9774169921875,-16431.435546875,1652.2298583984375,-50.34763717651367,-76.25091552734375,44.53728485107422,-0.03434036672115326,-0.008828114718198776
1731876906496.0,0.0,0.0,-20.0,0.0,0.0,0.0,0.0,0.0,0.0,0.0,0.0,0.0,0.0,0.0,0.0,-3.5977675914764404,0.0,0.0,0.21486805379390717,0.0,0.0,86.3111801147461,991.8799438476562,-16546.353515625,1665.444580078125,-88.2645034790039,-154.59811401367188,44.88846206665039,0.027167918160557747,-0.2760847508907318
1731876906529.0,0.0,0.0,-20.0,0.0,0.0,0.0,0.0,0.0,0.0,0.0,0.0,0.0,0.0,0.0,0.0,-3.1055188179016113,0.0,0.0,0.21447594463825226,0.0,0.0,-208.0451202392578,675.369140625,-16284.8291015625,1829.1392822265625,-44.90593719482422,98.39592742919922,45.19749069213867,0.26405757665634155,0.46629080176353455
1731876906529.0,0.0,0.0,-20.0,0.0,0.0,0.0,0.0,0.0,0.0,0.0,0.0,0.0,0.0,0.0,0.0,-3.1055188179016113,0.0,0.0,0.21447594463825226,0.0,0.0,-208.0451202392578,675.369140625,-16284.8291015625,1829.1392822265625,-44.90593719482422,98.39592742919922,45.19749069213867,0.26405757665634155,0.46629080176353455
1731876906546.0,0.0,0.0,-20.0,0.0,0.0,0.0,0.0,0.0,0.0,0.0,0.0,0.0,0.0,0.0,0.0,-2.8597474098205566,0.0,0.0,0.2141842544078827,0.0,0.0,-109.06867980957031,727.4453125,-16305.0810546875,1760.0736083984375,-93.1505126953125,49.77510070800781,45.07220458984375,0.20454305410385132,-0.13768309354782104
1731876906596.0,0.0,0.0,-20.0,0.0,0.0,0.0,0.0,0.0,0.0,0.0,0.0,0.0,0.0,0.0,0.0,-2.3697354793548584,0.0,0.0,0.21297232806682587,0.0,0.0,146.4924774169922,802.102783203125,-16428.44140625,1416.49169921875,9.860983848571777,41.51180648803711,45.01359939575195,0.17077107727527618,0.3299560546875
1731876906612.0,0.0,0.0,-20.0,0.0,0.0,0.0,0.0,0.0,0.0,0.0,0.0,0.0,0.0,0.0,0.0,-2.1256871223449707,0.0,0.0,0.21244674921035767,0.0,0.0,-100.20146179199219,532.9728393554688,-16429.759765625,1705.428955078125,-3979.493896484375,4.527252197265625,44.85226821899414,0.0781768262386322,0.12681123614311218
1731876906629.0,0.0,0.0,-20.0,0.0,0.0,0.0,0.0,0.0,0.0,0.0,0.0,0.0,0.0,0.0,0.0,-1.882241129875183,0.0,0.0,0.21185724437236786,0.0,0.0,-33.36553955078125,307.6756591796875,-16349.1689453125,1486.845947265625,-104.01110076904297,-63.35904312133789,44.84158706665039,0.1558474451303482,-0.32642802596092224
1731876906646.0,0.0,0.0,-20.0,0.0,0.0,0.0,0.0,0.0,0.0,0.0,0.0,0.0,0.0,0.0,0.0,-1.6394704580307007,0.0,0.0,0.21122241020202637,0.0,0.0,123.58658599853516,435.20159912109375,-16429.69140625,1461.756103515625,38.32581329345703,112.32003784179688,45.7431640625,-0.465413898229599,0.2152218222618103
1731876906679.0,0.0,0.0,-20.0,0.0,0.0,0.0,0.0,0.0,0.0,0.0,0.0,0.0,0.0,0.0,0.0,-1.3974275588989258,0.0,0.0,0.20975196361541748,0.0,0.0,-244.86996459960938,471.5814208984375,-16177.73828125,1481.66162109375,40.93584060668945,44.42911148071289,45.73601150512695,0.17480193078517914,-0.025094207376241684
1731876906712.0,0.0,0.0,-20.0,0.0,0.0,0.0,0.0,0.0,0.0,0.0,0.0,0.0,0.0,0.0,0.0,-0.9176449775695801,0.0,0.0,0.2080584168434143,0.0,0.0,39.574344635009766,302.4144592285156,-16503.28125,1118.9864501953125,125.67414093017578,74.2217788696289,45.34245681762695,0.6492388248443604,0.2720862329006195
1731876906729.0,0.0,0.0,-20.0,0.0,0.0,0.0,0.0,0.0,0.0,0.0,0.0,0.0,0.0,0.0,0.0,-0.6792276501655579,0.0,0.0,0.20713545382022858,0.0,0.0,-82.16768646240234,214.62997436523438,-16230.7080078125,1488.7041015625,61.9338493347168,-22.400659561157227,44.986045837402344,-0.19153396785259247,-0.35195961594581604
1731876906746.0,0.0,0.0,-20.0,0.0,0.0,0.0,0.0,0.0,0.0,0.0,0.0,0.0,0.0,0.0,0.0,-0.4418679177761078,0.0,0.0,0.20613384246826172,0.0,0.0,-84.48455047607422,179.967529296875,-16313.1064453125,1743.008544921875,42.643367767333984,65.35042572021484,44.64057159423828,-0.11324417591094971,-0.00416000559926033
1731876906762.0,0.0,0.0,-20.0,0.0,0.0,0.0,0.0,0.0,0.0,0.0,0.0,0.0,0.0,0.0,0.0,-0.20565587282180786,0.0,0.0,0.20508162677288055,0.0,0.0,-127.37422180175781,-144.6610870361328,-16320.1416015625,1807.468994140625,-62.60199737548828,-72.03659057617188,44.82142639160156,-0.43926480412483215,-0.37220901250839233
1731876906813.0,0.0,0.0,-20.0,0.0,0.0,0.0,0.0,0.0,0.0,0.0,0.0,0.0,0.0,0.0,0.0,0.261749267578125,0.0,0.0,0.20159125328063965,0.0,0.0,19.43315887451172,-83.69146728515625,-16250.833984375,1239.284912109375,54.99936294555664,15.124383926391602,45.18684387207031,0.19500930607318878,-0.17329943180084229
1731876906829.0,0.0,0.0,-20.0,0.0,0.0,0.0,0.0,0.0,0.0,0.0,0.0,0.0,0.0,0.0,0.0,0.492767333984375,0.0,0.0,0.20030240714550018,0.0,0.0,-41.94198226928711,-294.14727783203125,-16351.341796875,1340.325927734375,133.55459594726562,-69.80349731445312,45.0024528503418,-0.05860814452171326,0.3474986255168915
1731876906846.0,0.0,0.0,-20.0,0.0,0.0,0.0,0.0,0.0,0.0,0.0,0.0,0.0,0.0,0.0,0.0,0.7222900390625,0.0,0.0,0.19898657500743866,0.0,0.0,79.8948974609375,-324.04656982421875,-16342.66796875,1436.2308349609375,-14.855615615844727,111.30621337890625,44.763248443603516,0.1347673386335373,-0.0878269150853157
1731876906863.0,0.0,0.0,-20.0,0.0,0.0,0.0,0.0,0.0,0.0,0.0,0.0,0.0,0.0,0.0,0.0,0.9503173828125,0.0,0.0,0.19758565723896027,0.0,0.0,-130.2554931640625,-127.763427734375,-16304.8720703125,1707.595458984375,7.616093158721924,47.119384765625,44.68891143798828,-0.4076114296913147,0.1911187469959259
1731876906896.0,0.0,0.0,-20.0,0.0,0.0,0.0,0.0,0.0,0.0,0.0,0.0,0.0,0.0,0.0,0.0,1.176727294921875,0.0,0.0,0.19466064870357513,0.0,0.0,-56.73245620727539,-305.0833740234375,-16227.623046875,1308.9383544921875,34.79458999633789,11.956626892089844,44.83143615722656,-0.13248252868652344,-0.2807680368423462
1731876906929.0,0.0,0.0,-20.0,0.0,0.0,0.0,0.0,0.0,0.0,0.0,0.0,0.0,0.0,0.0,0.0,1.621063232421875,0.0,0.0,0.19149717688560486,0.0,0.0,-169.38052368164062,-563.8759765625,-16357.3076171875,1601.6087646484375,-22.569704055786133,46.95878601074219,44.916297912597656,-0.18163086473941803,0.3703615069389343
1731876906946.0,0.0,0.0,-20.0,0.0,0.0,0.0,0.0,0.0,0.0,0.0,0.0,0.0,0.0,0.0,0.0,1.84051513671875,0.0,0.0,0.18983487784862518,0.0,0.0,-33.229827880859375,-511.6329345703125,-16309.103515625,1367.768310546875,-11.54663372039795,45.85093688964844,45.06074523925781,-0.08444288372993469,-0.26568785309791565
1731876906963.0,0.0,0.0,-20.0,0.0,0.0,0.0,0.0,0.0,0.0,0.0,0.0,0.0,0.0,0.0,0.0,2.05804443359375,0.0,0.0,0.18811950087547302,0.0,0.0,173.069091796875,-723.6962890625,-16239.9697265625,1535.435546875,-64.78240203857422,-29.951522827148438,44.537105560302734,0.17946739494800568,0.2536254823207855
1731876906996.0,0.0,0.0,-20.0,0.0,0.0,0.0,0.0,0.0,0.0,0.0,0.0,0.0,0.0,0.0,0.0,2.27362060546875,0.0,0.0,0.18457180261611938,0.0,0.0,-78.07975006103516,-719.756591796875,-16344.7587890625,1292.1063232421875,-44.61853790283203,-37.21036911010742,45.0322380065918,-0.31679269671440125,0.5512664318084717
1731876907013.0,0.0,0.0,-20.0,0.0,0.0,0.0,0.0,0.0,0.0,0.0,0.0,0.0,0.0,0.0,0.0,2.485107421875,0.0,0.0,0.18265965580940247,0.0,0.0,-48.01476287841797,-875.2042846679688,-16381.609375,1279.16650390625,10.491670608520508,-193.2606658935547,44.60371017456055,-0.12788337469100952,0.07892298698425293
1731876907046.0,0.0,0.0,-20.0,0.0,0.0,0.0,0.0,0.0,0.0,0.0,0.0,0.0,0.0,0.0,0.0,2.901611328125,0.0,0.0,0.17880724370479584,0.0,0.0,-46.289756774902344,-801.362548828125,-16571.041015625,1352.0830078125,-49.298397064208984,-51.28905487060547,44.6192626953125,0.01527957059442997,0.3359124958515167
1731876907046.0,0.0,0.0,-20.0,0.0,0.0,0.0,0.0,0.0,0.0,0.0,0.0,0.0,0.0,0.0,0.0,2.901611328125,0.0,0.0,0.17880724370479584,0.0,0.0,-46.289756774902344,-801.362548828125,-16571.041015625,1352.0830078125,-49.298397064208984,-51.28905487060547,44.6192626953125,0.01527957059442997,0.3359124958515167
1731876907096.0,0.0,0.0,-20.0,0.0,0.0,0.0,0.0,0.0,0.0,0.0,0.0,0.0,0.0,0.0,0.0,3.309051513671875,0.0,0.0,0.17259271442890167,0.0,0.0,-151.17715454101562,-1038.134765625,-16504.732421875,1193.7652587890625,-69.14796447753906,-85.27777862548828,44.74863052368164,0.14937064051628113,-0.24045126140117645
1731876907113.0,0.0,0.0,-20.0,0.0,0.0,0.0,0.0,0.0,0.0,0.0,0.0,0.0,0.0,0.0,0.0,3.5068359375,0.0,0.0,0.17043988406658173,0.0,0.0,-115.65885162353516,-1037.382568359375,-16355.384765625,1554.986328125,24.27760124206543,112.59046936035156,44.843528747558594,-0.43683189153671265,0.26175734400749207
1731876907146.0,0.0,0.0,-20.0,0.0,0.0,0.0,0.0,0.0,0.0,0.0,0.0,0.0,0.0,0.0,0.0,3.8948974609375,0.0,0.0,0.16594383120536804,0.0,0.0,146.9908905029297,-1186.945556640625,-16383.15234375,1261.798828125,70.37419128417969,-14.571388244628906,44.930702209472656,0.07565734535455704,-0.048279546201229095
1731876907146.0,0.0,0.0,-20.0,0.0,0.0,0.0,0.0,0.0,0.0,0.0,0.0,0.0,0.0,0.0,0.0,3.8948974609375,0.0,0.0,0.16594383120536804,0.0,0.0,146.9908905029297,-1186.945556640625,-16383.15234375,1261.798828125,70.37419128417969,-14.571388244628906,44.930702209472656,0.07565734535455704,-0.048279546201229095
1731876907163.0,0.0,0.0,-20.0,0.0,0.0,0.0,0.0,0.0,0.0,0.0,0.0,0.0,0.0,0.0,0.0,4.085052490234375,0.0,0.0,0.16365091502666473,0.0,0.0,118.7295913696289,-1233.48681640625,-16277.6103515625,1316.888671875,23.01547622680664,11.556282997131348,45.29006576538086,-0.2538851499557495,-0.01385302934795618
1731876907213.0,0.0,0.0,-20.0,0.0,0.0,0.0,0.0,0.0,0.0,0.0,0.0,0.0,0.0,0.0,0.0,4.454681396484375,0.0,0.0,0.156450092792511,0.0,0.0,94.3307113647461,-1257.0283203125,-16472.33984375,1132.91455078125,-33.27593994140625,-88.46243286132812,44.99465560913086,-0.26582643389701843,-0.15972279012203217
1731876907230.0,0.0,0.0,-20.0,0.0,0.0,0.0,0.0,0.0,0.0,0.0,0.0,0.0,0.0,0.0,0.0,4.633941650390625,0.0,0.0,0.1539614051580429,0.0,0.0,-13.161288261413574,-1129.369384765625,-16181.31640625,920.7251586914062,-52.457210540771484,85.9090347290039,45.414241790771484,-0.04441022872924805,-0.03713332116603851
1731876907246.0,0.0,0.0,-20.0,0.0,0.0,0.0,0.0,0.0,0.0,0.0,0.0,0.0,0.0,0.0,0.0,4.81036376953125,0.0,0.0,0.1514482945203781,0.0,0.0,-62.68109893798828,-1634.0225830078125,-16355.7724609375,1233.5758056640625,18.283550262451172,-63.60664367675781,44.550132751464844,-0.3409231901168823,-0.32583704590797424
1731876907263.0,0.0,0.0,-20.0,0.0,0.0,0.0,0.0,0.0,0.0,0.0,0.0,0.0,0.0,0.0,0.0,4.983917236328125,0.0,0.0,0.14887449145317078,0.0,0.0,0.16309915482997894,-1382.8671875,-16279.498046875,1029.796875,-56.9194221496582,-118.3482666015625,44.3929557800293,-0.4681393504142761,0.05560731515288353
1731876907313.0,0.0,0.0,-20.0,0.0,0.0,0.0,0.0,0.0,0.0,0.0,0.0,0.0,0.0,0.0,0.0,5.319122314453125,0.0,0.0,0.1409458965063095,0.0,0.0,70.71106719970703,-1424.0665283203125,-16377.412109375,1208.8111572265625,-67.94271087646484,59.26863098144531,44.84976577758789,0.10496701300144196,0.22193127870559692
1731876907330.0,0.0,0.0,-20.0,0.0,0.0,0.0,0.0,0.0,0.0,0.0,0.0,0.0,0.0,0.0,0.0,5.480621337890625,0.0,0.0,0.13819044828414917,0.0,0.0,70.86720275878906,-1590.3553466796875,-16193.2705078125,951.2036743164062,55.78615951538086,47.24509048461914,45.255226135253906,0.29049021005630493,0.3811763525009155
1731876907347.0,0.0,0.0,-20.0,0.0,0.0,0.0,0.0,0.0,0.0,0.0,0.0,0.0,0.0,0.0,0.0,5.63897705078125,0.0,0.0,0.13545696437358856,0.0,0.0,103.41947937011719,-1592.7130126953125,-16118.1279296875,994.25341796875,5.014673233032227,-0.2287069857120514,45.185550689697266,-0.1279078871011734,0.47547897696495056
1731876907363.0,0.0,0.0,-20.0,0.0,0.0,0.0,0.0,0.0,0.0,0.0,0.0,0.0,0.0,0.0,0.0,5.794219970703125,0.0,0.0,0.13266602158546448,0.0,0.0,62.63750457763672,-1805.1553955078125,-16314.8154296875,1071.74072265625,-85.86393737792969,-48.484771728515625,44.998836517333984,0.18258818984031677,-0.36560770869255066
1731876907397.0,0.0,0.0,-20.0,0.0,0.0,0.0,0.0,0.0,0.0,0.0,0.0,0.0,0.0,0.0,0.0,5.94622802734375,0.0,0.0,0.1269116997718811,0.0,0.0,14.52457046508789,-1615.9404296875,-16304.6025390625,898.3718872070312,40.37725830078125,47.00752639770508,45.21370315551758,-0.07509405165910721,0.1502964198589325
1731876907430.0,0.0,0.0,-20.0,0.0,0.0,0.0,0.0,0.0,0.0,0.0,0.0,0.0,0.0,0.0,0.0,6.233734130859375,0.0,0.0,0.12103605270385742,0.0,0.0,9.060492515563965,-1765.410888671875,-16220.1142578125,887.3991088867188,9.395179748535156,87.28392028808594,44.8997802734375,-0.2823528051376343,0.05040603131055832
1731876907447.0,0.0,0.0,-20.0,0.0,0.0,0.0,0.0,0.0,0.0,0.0,0.0,0.0,0.0,0.0,0.0,6.3724365234375,0.0,0.0,0.11804703623056412,0.0,0.0,-23.21645736694336,-1692.5738525390625,-16223.607421875,690.5772705078125,-61.44155502319336,71.8936996459961,45.22385787963867,0.280150443315506,-0.11554617434740067
1731876907463.0,0.0,0.0,-20.0,0.0,0.0,0.0,0.0,0.0,0.0,0.0,0.0,0.0,0.0,0.0,0.0,6.507720947265625,0.0,0.0,0.11504719406366348,0.0,0.0,82.92467498779297,-1853.033203125,-16306.365234375,883.9314575195312,41.92153549194336,46.002193450927734,44.81196594238281,0.1356678456068039,0.0260589849203825
1731876907497.0,0.0,0.0,-20.0,0.0,0.0,0.0,0.0,0.0,0.0,0.0,0.0,0.0,0.0,0.0,0.0,6.639556884765625,0.0,0.0,0.10890794545412064,0.0,0.0,118.0934066772461,-1692.5225830078125,-16199.927734375,882.2319946289062,-58.07954406738281,-64.94270324707031,44.72916793823242,0.44023334980010986,-0.3849867284297943
1731876907530.0,0.0,0.0,-20.0,0.0,0.0,0.0,0.0,0.0,0.0,0.0,0.0,0.0,0.0,0.0,0.0,6.885589599609375,0.0,0.0,0.10264687240123749,0.0,0.0,-104.15312194824219,-1838.1268310546875,-16393.724609375,850.0960083007812,4.251280784606934,-28.37471580505371,45.202781677246094,-0.15258070826530457,-0.11244828253984451
1731876907547.0,0.0,0.0,-20.0,0.0,0.0,0.0,0.0,0.0,0.0,0.0,0.0,0.0,0.0,0.0,0.0,7.00323486328125,0.0,0.0,0.09954264014959335,0.0,0.0,82.35240936279297,-1840.2576904296875,-16206.8154296875,532.3859252929688,-3.064988374710083,-64.24723815917969,45.22978210449219,-0.28202229738235474,0.08678343147039413
1731876907547.0,0.0,0.0,-20.0,0.0,0.0,0.0,0.0,0.0,0.0,0.0,0.0,0.0,0.0,0.0,0.0,7.00323486328125,0.0,0.0,0.09954264014959335,0.0,0.0,82.35240936279297,-1840.2576904296875,-16206.8154296875,532.3859252929688,-3.064988374710083,-64.24723815917969,45.22978210449219,-0.28202229738235474,0.08678343147039413
1731876907597.0,0.0,0.0,-20.0,0.0,0.0,0.0,0.0,0.0,0.0,0.0,0.0,0.0,0.0,0.0,0.0,7.2276611328125,0.0,0.0,0.08985893428325653,0.0,0.0,145.45021057128906,-1990.8861083984375,-16292.6435546875,709.2865600585938,-157.1876678466797,28.348146438598633,45.06148910522461,0.339562326669693,0.06637927144765854
1731876907614.0,0.0,0.0,-20.0,0.0,0.0,0.0,0.0,0.0,0.0,0.0,0.0,0.0,0.0,0.0,0.0,7.33062744140625,0.0,0.0,0.08657956123352051,0.0,0.0,86.31626892089844,-1950.584228515625,-16366.8642578125,725.3351440429688,-106.16219329833984,43.43279266357422,45.09365463256836,0.314587265253067,-0.2701230049133301
1731876907647.0,0.0,0.0,-20.0,0.0,0.0,0.0,0.0,0.0,0.0,0.0,0.0,0.0,0.0,0.0,0.0,7.5252685546875,0.0,0.0,0.07997345924377441,0.0,0.0,46.619693756103516,-2113.431640625,-16246.400390625,526.2789916992188,50.149864196777344,-109.67683410644531,44.663936614990234,0.10783721506595612,0.06116204708814621
1731876907647.0,0.0,0.0,-20.0,0.0,0.0,0.0,0.0,0.0,0.0,0.0,0.0,0.0,0.0,0.0,0.0,7.5252685546875,0.0,0.0,0.07997345924377441,0.0,0.0,46.619693756103516,-2113.431640625,-16246.400390625,526.2789916992188,50.149864196777344,-109.67683410644531,44.663936614990234,0.10783721506595612,0.06116204708814621
1731876907697.0,0.0,0.0,-20.0,0.0,0.0,0.0,0.0,0.0,0.0,0.0,0.0,0.0,0.0,0.0,0.0,7.7047119140625,0.0,0.0,0.06991252303123474,0.0,0.0,-199.98435974121094,-2234.92919921875,-16414.41796875,507.287353515625,-119.82860565185547,13.273117065429688,45.04850387573242,0.12280648201704025,0.2934681475162506
1731876907714.0,0.0,0.0,-20.0,0.0,0.0,0.0,0.0,0.0,0.0,0.0,0.0,0.0,0.0,0.0,0.0,7.78485107421875,0.0,0.0,0.06647730618715286,0.0,0.0,156.27301025390625,-2223.90283203125,-16584.833984375,505.9061279296875,32.060611724853516,-67.5416259765625,45.23653793334961,-0.20124943554401398,-0.1104767695069313
1731876907747.0,0.0,0.0,-20.0,0.0,0.0,0.0,0.0,0.0,0.0,0.0,0.0,0.0,0.0,0.0,0.0,7.933319091796875,0.0,0.0,0.059677354991436005,0.0,0.0,-211.63140869140625,-2188.792236328125,-16080.1826171875,558.683837890625,-3.044046401977539,27.61189842224121,44.69551086425781,0.16673444211483002,0.46588173508644104
1731876907747.0,0.0,0.0,-20.0,0.0,0.0,0.0,0.0,0.0,0.0,0.0,0.0,0.0,0.0,0.0,0.0,7.933319091796875,0.0,0.0,0.059677354991436005,0.0,0.0,-211.63140869140625,-2188.792236328125,-16080.1826171875,558.683837890625,-3.044046401977539,27.61189842224121,44.69551086425781,0.16673444211483002,0.46588173508644104
1731876907764.0,0.0,0.0,-20.0,0.0,0.0,0.0,0.0,0.0,0.0,0.0,0.0,0.0,0.0,0.0,0.0,8.001708984375,0.0,0.0,0.05621442198753357,0.0,0.0,-72.36860656738281,-2411.116455078125,-16355.7392578125,377.30596923828125,-82.08342742919922,36.72969436645508,44.80283737182617,0.48151540756225586,-0.4179909825325012
1731876907813.0,0.0,0.0,-20.0,0.0,0.0,0.0,0.0,0.0,0.0,0.0,0.0,0.0,0.0,0.0,0.0,8.12255859375,0.0,0.0,0.045786477625370026,0.0,0.0,29.195507049560547,-2082.05078125,-16497.494140625,341.80059814453125,94.29859924316406,-34.2458610534668,44.61296844482422,-0.046398840844631195,-0.23357895016670227
1731876907830.0,0.0,0.0,-20.0,0.0,0.0,0.0,0.0,0.0,0.0,0.0,0.0,0.0,0.0,0.0,0.0,8.175018310546875,0.0,0.0,0.04224095493555069,0.0,0.0,147.3157501220703,-2421.501220703125,-16054.6259765625,169.53416442871094,84.785888671875,3.9409196376800537,45.61553192138672,0.002112947404384613,-0.04819086566567421
1731876907847.0,0.0,0.0,-20.0,0.0,0.0,0.0,0.0,0.0,0.0,0.0,0.0,0.0,0.0,0.0,0.0,8.223419189453125,0.0,0.0,0.038812536746263504,0.0,0.0,-69.97356414794922,-2406.925537109375,-16376.1943359375,257.3114929199219,35.65219497680664,83.61399841308594,44.97123718261719,0.04190199449658394,-0.14755190908908844
1731876907863.0,0.0,0.0,-20.0,0.0,0.0,0.0,0.0,0.0,0.0,0.0,0.0,0.0,0.0,0.0,0.0,8.26788330078125,0.0,0.0,0.035244427621364594,0.0,0.0,-55.29747772216797,-2336.539306640625,-16176.0390625,334.0414733886719,1.8189177513122559,7.5886125564575195,44.980770111083984,-0.037438396364450455,-0.22887498140335083
1731876907897.0,0.0,0.0,-20.0,0.0,0.0,0.0,0.0,0.0,0.0,0.0,0.0,0.0,0.0,0.0,0.0,8.30828857421875,0.0,0.0,0.028105247765779495,0.0,0.0,-14.933673858642578,-2456.96630859375,-16247.4716796875,151.8997802734375,134.91448974609375,32.358245849609375,45.35023880004883,-0.23897747695446014,-0.354944109916687
1731876907930.0,0.0,0.0,-20.0,0.0,0.0,0.0,0.0,0.0,0.0,0.0,0.0,0.0,0.0,0.0,0.0,8.368621826171875,0.0,0.0,0.020986642688512802,0.0,0.0,110.33700561523438,-2468.69873046875,-16262.7890625,96.18482208251953,-6.4781999588012695,63.88618850708008,45.59832763671875,0.0625557228922844,-0.017419522628188133
1731876907947.0,0.0,0.0,-20.0,0.0,0.0,0.0,0.0,0.0,0.0,0.0,0.0,0.0,0.0,0.0,0.0,8.392669677734375,0.0,0.0,0.017457349225878716,0.0,0.0,-14.582425117492676,-2503.255615234375,-16221.7939453125,120.48190307617188,31.232675552368164,-14.252816200256348,44.87123489379883,0.19781145453453064,-0.2665489614009857
1731876907964.0,0.0,0.0,-20.0,0.0,0.0,0.0,0.0,0.0,0.0,0.0,0.0,0.0,0.0,0.0,0.0,8.41265869140625,0.0,0.0,0.013844734989106655,0.0,0.0,90.62609100341797,-2461.916259765625,-16241.5361328125,56.7641487121582,92.13749694824219,-10.637046813964844,45.34675979614258,-0.1569283902645111,0.0012618264881893992
1731876907997.0,0.0,0.0,-20.0,0.0,0.0,0.0,0.0,0.0,0.0,0.0,0.0,0.0,0.0,0.0,0.0,8.42852783203125,0.0,0.0,0.006634979508817196,0.0,0.0,-73.2190933227539,-2516.79150390625,-16240.2685546875,40.173194885253906,-35.63431167602539,-25.625673294067383,44.71903610229492,-0.2582445442676544,0.12602314352989197
1731876908030.0,0.0,0.0,-20.0,0.0,0.0,0.0,0.0,0.0,0.0,0.0,0.0,0.0,0.0,0.0,0.0,8.43963623046875,0.0,0.0,-0.0005035065696574748,0.0,0.0,-3.0823843479156494,-2362.908447265625,-16077.0302734375,11.038165092468262,-22.640981674194336,-7.945986747741699,45.28899002075195,-0.08876653015613556,-0.06468246877193451
1731876908047.0,0.0,0.0,-20.0,0.0,0.0,0.0,0.0,0.0,0.0,0.0,0.0,0.0,0.0,0.0,0.0,8.439056396484375,0.0,0.0,-0.004099276848137379,0.0,0.0,60.45071792602539,-2274.97802734375,-16253.1171875,-62.118988037109375,-71.2177963256836,-77.26837158203125,45.03685760498047,-0.24141965806484222,-0.16771842539310455
1731876908047.0,0.0,0.0,-20.0,0.0,0.0,0.0,0.0,0.0,0.0,0.0,0.0,0.0,0.0,0.0,0.0,8.439056396484375,0.0,0.0,-0.004099276848137379,0.0,0.0,60.45071792602539,-2274.97802734375,-16253.1171875,-62.118988037109375,-71.2177963256836,-77.26837158203125,45.03685760498047,-0.24141965806484222,-0.16771842539310455
1731876908097.0,0.0,0.0,-20.0,0.0,0.0,0.0,0.0,0.0,0.0,0.0,0.0,0.0,0.0,0.0,0.0,8.425567626953125,0.0,0.0,-0.014823317527770996,0.0,0.0,-40.043426513671875,-2580.300048828125,-16262.92578125,-4.379275321960449,42.34560012817383,60.700687408447266,45.04338073730469,-0.4135986566543579,0.25733745098114014
1731876908114.0,0.0,0.0,-20.0,0.0,0.0,0.0,0.0,0.0,0.0,0.0,0.0,0.0,0.0,0.0,0.0,8.408599853515625,0.0,0.0,-0.018382389098405838,0.0,0.0,72.70680236816406,-2437.18896484375,-16228.9072265625,-77.96476745605469,-24.59976577758789,78.70059204101562,44.648338317871094,0.1417326033115387,-0.1708407998085022
1731876908147.0,0.0,0.0,-20.0,0.0,0.0,0.0,0.0,0.0,0.0,0.0,0.0,0.0,0.0,0.0,0.0,8.36236572265625,0.0,0.0,-0.025484351441264153,0.0,0.0,63.854759216308594,-2137.079345703125,-16125.7060546875,-197.5905303955078,65.80912780761719,10.856231689453125,44.75948715209961,-0.5802739262580872,-0.2403026968240738
1731876908147.0,0.0,0.0,-20.0,0.0,0.0,0.0,0.0,0.0,0.0,0.0,0.0,0.0,0.0,0.0,0.0,8.36236572265625,0.0,0.0,-0.025484351441264153,0.0,0.0,63.854759216308594,-2137.079345703125,-16125.7060546875,-197.5905303955078,65.80912780761719,10.856231689453125,44.75948715209961,-0.5802739262580872,-0.2403026968240738
1731876908197.0,0.0,0.0,-20.0,0.0,0.0,0.0,0.0,0.0,0.0,0.0,0.0,0.0,0.0,0.0,0.0,8.2998046875,0.0,0.0,-0.036237433552742004,0.0,0.0,-25.591657638549805,-2441.9306640625,-16085.6611328125,-192.32737731933594,44.850948333740234,-40.12097930908203,45.019718170166016,-0.15158303081989288,0.0002618593571241945
1731876908214.0,0.0,0.0,-20.0,0.0,0.0,0.0,0.0,0.0,0.0,0.0,0.0,0.0,0.0,0.0,0.0,8.258270263671875,0.0,0.0,-0.03972519189119339,0.0,0.0,76.77793884277344,-2480.669677734375,-16052.6474609375,-296.84356689453125,19.724611282348633,-40.081398010253906,45.275569915771484,0.06986598670482635,0.025164784863591194
1731876908230.0,0.0,0.0,-20.0,0.0,0.0,0.0,0.0,0.0,0.0,0.0,0.0,0.0,0.0,0.0,0.0,8.2127685546875,0.0,0.0,-0.043253589421510696,0.0,0.0,16.99715805053711,-2297.12939453125,-16267.439453125,-435.2966003417969,79.62591552734375,-30.494739532470703,45.34968566894531,0.34974464774131775,-0.1756720095872879
1731876908247.0,0.0,0.0,-20.0,0.0,0.0,0.0,0.0,0.0,0.0,0.0,0.0,0.0,0.0,0.0,0.0,8.1632080078125,0.0,0.0,-0.04682113230228424,0.0,0.0,71.96662139892578,-2174.01171875,-16083.6259765625,-356.9909973144531,-13.685853004455566,-67.0990982055664,44.89883804321289,0.6311529874801636,0.556420087814331
1731876908264.0,0.0,0.0,-20.0,0.0,0.0,0.0,0.0,0.0,0.0,0.0,0.0,0.0,0.0,0.0,0.0,8.10955810546875,0.0,0.0,-0.0502731129527092,0.0,0.0,-8.010612487792969,-2193.408935546875,-16222.8642578125,-387.6265869140625,9.591753005981445,49.802589416503906,45.22874450683594,0.004622351378202438,-0.30841392278671265
1731876908314.0,0.0,0.0,-20.0,0.0,0.0,0.0,0.0,0.0,0.0,0.0,0.0,0.0,0.0,0.0,0.0,7.98638916015625,0.0,0.0,-0.06066933646798134,0.0,0.0,-61.701255798339844,-2179.8603515625,-16180.28515625,-394.333251953125,-35.18915557861328,-147.02841186523438,44.91608428955078,-0.2778432369232178,-0.11313948780298233
1731876908331.0,0.0,0.0,-20.0,0.0,0.0,0.0,0.0,0.0,0.0,0.0,0.0,0.0,0.0,0.0,0.0,7.916839599609375,0.0,0.0,-0.06411059945821762,0.0,0.0,68.21156311035156,-2193.564453125,-16142.5615234375,-441.75897216796875,-125.09689331054688,108.86952209472656,44.8152961730957,-0.2486589252948761,-0.2769966423511505
1731876908348.0,0.0,0.0,-20.0,0.0,0.0,0.0,0.0,0.0,0.0,0.0,0.0,0.0,0.0,0.0,0.0,7.8433837890625,0.0,0.0,-0.067533940076828,0.0,0.0,-169.93374633789062,-2247.93359375,-16179.4384765625,-502.6881408691406,-30.521520614624023,116.32984924316406,44.41036605834961,-0.1821126639842987,-0.033721353858709335
1731876908364.0,0.0,0.0,-20.0,0.0,0.0,0.0,0.0,0.0,0.0,0.0,0.0,0.0,0.0,0.0,0.0,7.7659912109375,0.0,0.0,-0.07091362029314041,0.0,0.0,8.50886344909668,-2275.93310546875,-16225.0498046875,-508.2845764160156,18.922948837280273,-16.77001190185547,45.26170349121094,-0.378326416015625,-0.056828003376722336
1731876908414.0,0.0,0.0,-20.0,0.0,0.0,0.0,0.0,0.0,0.0,0.0,0.0,0.0,0.0,0.0,0.0,7.595703125,0.0,0.0,-0.08100462704896927,0.0,0.0,109.44036102294922,-2147.275634765625,-16336.4716796875,-619.8829345703125,30.40163230895996,-32.025665283203125,44.979278564453125,-0.1656046360731125,-0.051479168236255646
1731876908431.0,0.0,0.0,-20.0,0.0,0.0,0.0,0.0,0.0,0.0,0.0,0.0,0.0,0.0,0.0,0.0,7.502899169921875,0.0,0.0,-0.08430007845163345,0.0,0.0,-163.02317810058594,-1999.9967041015625,-16254.0654296875,-689.725830078125,40.103004455566406,238.89376831054688,45.0959358215332,0.31167078018188477,0.1181705966591835
1731876908448.0,0.0,0.0,-20.0,0.0,0.0,0.0,0.0,0.0,0.0,0.0,0.0,0.0,0.0,0.0,0.0,7.406280517578125,0.0,0.0,-0.08762025833129883,0.0,0.0,59.602779388427734,-1990.7568359375,-16348.7822265625,-692.590576171875,-56.8995246887207,108.18959045410156,45.057884216308594,0.21366693079471588,-0.009988222271203995
1731876908464.0,0.0,0.0,-20.0,0.0,0.0,0.0,0.0,0.0,0.0,0.0,0.0,0.0,0.0,0.0,0.0,7.305877685546875,0.0,0.0,-0.09084419161081314,0.0,0.0,33.58251953125,-2203.9267578125,-16280.2763671875,-600.5166625976562,-85.86363220214844,1.2476755380630493,45.456295013427734,-0.040083419531583786,0.22769197821617126
1731876908514.0,0.0,0.0,-20.0,0.0,0.0,0.0,0.0,0.0,0.0,0.0,0.0,0.0,0.0,0.0,0.0,7.090301513671875,0.0,0.0,-0.10043415427207947,0.0,0.0,-163.1617431640625,-1866.8287353515625,-16397.728515625,-815.9964599609375,-45.585906982421875,65.06172943115234,44.98385238647461,0.16728155314922333,0.27162009477615356
1731876908531.0,0.0,0.0,-20.0,0.0,0.0,0.0,0.0,0.0,0.0,0.0,0.0,0.0,0.0,0.0,0.0,6.9752197265625,0.0,0.0,-0.10359961539506912,0.0,0.0,132.9600067138672,-2103.902099609375,-16243.8369140625,-769.1015625,16.563602447509766,-23.47842025756836,45.272666931152344,0.2511989176273346,0.1470475047826767
1731876908547.0,0.0,0.0,-20.0,0.0,0.0,0.0,0.0,0.0,0.0,0.0,0.0,0.0,0.0,0.0,0.0,6.85650634765625,0.0,0.0,-0.10673610121011734,0.0,0.0,-193.35562133789062,-1909.22314453125,-16410.123046875,-711.3898315429688,-12.324106216430664,34.61840057373047,45.22032928466797,-0.3219607472419739,0.018681900575757027
1731876908564.0,0.0,0.0,-20.0,0.0,0.0,0.0,0.0,0.0,0.0,0.0,0.0,0.0,0.0,0.0,0.0,6.73419189453125,0.0,0.0,-0.10984274744987488,0.0,0.0,-27.52583122253418,-1921.75146484375,-16323.28515625,-856.4509887695312,8.965262413024902,15.008602142333984,45.43159866333008,-0.04436797648668289,0.029676906764507294
1731876908597.0,0.0,0.0,-20.0,0.0,0.0,0.0,0.0,0.0,0.0,0.0,0.0,0.0,0.0,0.0,0.0,6.608306884765625,0.0,0.0,-0.11591878533363342,0.0,0.0,2.450265407562256,-1940.19775390625,-16235.888671875,-956.488037109375,-35.840240478515625,-119.66809844970703,44.802711486816406,0.2362215369939804,0.6569523215293884
1731876908631.0,0.0,0.0,-20.0,0.0,0.0,0.0,0.0,0.0,0.0,0.0,0.0,0.0,0.0,0.0,0.0,6.339202880859375,0.0,0.0,-0.1218886747956276,0.0,0.0,74.50935363769531,-1782.90087890625,-16031.966796875,-945.5430908203125,1.7687482833862305,68.6262435913086,45.064491271972656,0.05197751894593239,0.11153657734394073
1731876908647.0,0.0,0.0,-20.0,0.0,0.0,0.0,0.0,0.0,0.0,0.0,0.0,0.0,0.0,0.0,0.0,6.19952392578125,0.0,0.0,-0.12483395636081696,0.0,0.0,-44.10641098022461,-1677.5924072265625,-16287.494140625,-912.7626342773438,-97.5575942993164,-100.5914077758789,45.44676971435547,-0.30945974588394165,-0.44109395146369934
1731876908664.0,0.0,0.0,-20.0,0.0,0.0,0.0,0.0,0.0,0.0,0.0,0.0,0.0,0.0,0.0,0.0,6.056488037109375,0.0,0.0,-0.12776543200016022,0.0,0.0,-36.64085006713867,-1594.947509765625,-16197.390625,-879.4764404296875,1.8964093923568726,47.94306182861328,44.738975524902344,-0.20650087296962738,-0.16774572432041168
1731876908698.0,0.0,0.0,-20.0,0.0,0.0,0.0,0.0,0.0,0.0,0.0,0.0,0.0,0.0,0.0,0.0,5.910064697265625,0.0,0.0,-0.13345707952976227,0.0,0.0,-32.003604888916016,-1802.068603515625,-16380.228515625,-938.4037475585938,-29.035303115844727,75.97760009765625,45.29255294799805,-0.6065171360969543,-0.27253201603889465
1731876908714.0,0.0,0.0,-20.0,0.0,0.0,0.0,0.0,0.0,0.0,0.0,0.0,0.0,0.0,0.0,0.0,5.75714111328125,0.0,0.0,-0.1362578570842743,0.0,0.0,-5.8116888999938965,-1669.12548828125,-16465.3984375,-912.3097534179688,88.55829620361328,-51.848934173583984,44.85448455810547,0.22206199169158936,-0.07330414652824402
1731876908747.0,0.0,0.0,-20.0,0.0,0.0,0.0,0.0,0.0,0.0,0.0,0.0,0.0,0.0,0.0,0.0,5.441741943359375,0.0,0.0,-0.1417246013879776,0.0,0.0,-151.34226989746094,-1489.6092529296875,-16346.390625,-962.9397583007812,34.72018051147461,-167.90252685546875,45.16884994506836,-0.6648234724998474,-0.14627820253372192
1731876908747.0,0.0,0.0,-20.0,0.0,0.0,0.0,0.0,0.0,0.0,0.0,0.0,0.0,0.0,0.0,0.0,5.441741943359375,0.0,0.0,-0.1417246013879776,0.0,0.0,-151.34226989746094,-1489.6092529296875,-16346.390625,-962.9397583007812,34.72018051147461,-167.90252685546875,45.16884994506836,-0.6648234724998474,-0.14627820253372192
1731876908797.0,0.0,0.0,-20.0,0.0,0.0,0.0,0.0,0.0,0.0,0.0,0.0,0.0,0.0,0.0,0.0,5.113861083984375,0.0,0.0,-0.14959947764873505,0.0,0.0,0.920910656452179,-1576.653564453125,-16188.486328125,-940.3130493164062,6.174802303314209,85.47008514404297,45.475887298583984,0.010585821233689785,-0.26907581090927124
1731876908814.0,0.0,0.0,-20.0,0.0,0.0,0.0,0.0,0.0,0.0,0.0,0.0,0.0,0.0,0.0,0.0,4.94244384765625,0.0,0.0,-0.15219856798648834,0.0,0.0,67.00006866455078,-1396.2828369140625,-16153.6171875,-1144.0933837890625,-38.0765266418457,16.15801429748535,45.4382209777832,-0.32354792952537537,0.1359623819589615
1731876908848.0,0.0,0.0,-20.0,0.0,0.0,0.0,0.0,0.0,0.0,0.0,0.0,0.0,0.0,0.0,0.0,4.59075927734375,0.0,0.0,-0.15717503428459167,0.0,0.0,-29.502233505249023,-1347.889404296875,-16333.2890625,-974.3094482421875,12.273947715759277,-113.68604278564453,44.40821838378906,0.009827395901083946,-0.08514633774757385
1731876908848.0,0.0,0.0,-20.0,0.0,0.0,0.0,0.0,0.0,0.0,0.0,0.0,0.0,0.0,0.0,0.0,4.59075927734375,0.0,0.0,-0.15717503428459167,0.0,0.0,-29.502233505249023,-1347.889404296875,-16333.2890625,-974.3094482421875,12.273947715759277,-113.68604278564453,44.40821838378906,0.009827395901083946,-0.08514633774757385
1731876908865.0,0.0,0.0,-20.0,0.0,0.0,0.0,0.0,0.0,0.0,0.0,0.0,0.0,0.0,0.0,0.0,4.41064453125,0.0,0.0,-0.15962453186511993,0.0,0.0,-32.19117736816406,-1329.5718994140625,-16309.4130859375,-1296.44775390625,30.84914207458496,57.30497360229492,44.781253814697266,0.6066393256187439,-0.18884025514125824
1731876908914.0,0.0,0.0,-20.0,0.0,0.0,0.0,0.0,0.0,0.0,0.0,0.0,0.0,0.0,0.0,0.0,4.0394287109375,0.0,0.0,-0.1666155904531479,0.0,0.0,34.54866409301758,-1222.7548828125,-16444.01171875,-1226.810302734375,-58.60626220703125,-20.02777671813965,44.52690887451172,0.003213386982679367,0.05902465432882309
1731876908931.0,0.0,0.0,-20.0,0.0,0.0,0.0,0.0,0.0,0.0,0.0,0.0,0.0,0.0,0.0,0.0,3.8485107421875,0.0,0.0,-0.1688653528690338,0.0,0.0,-25.851015090942383,-1217.259521484375,-16369.2353515625,-1199.5386962890625,-17.207826614379883,44.44114303588867,45.04624938964844,0.601227343082428,-0.005055357702076435
1731876908948.0,0.0,0.0,-20.0,0.0,0.0,0.0,0.0,0.0,0.0,0.0,0.0,0.0,0.0,0.0,0.0,3.654998779296875,0.0,0.0,-0.17103606462478638,0.0,0.0,212.49069213867188,-1035.826416015625,-16416.65234375,-1126.7802734375,-7.994853496551514,-165.11013793945312,44.74098587036133,0.1936286836862564,-0.4012686014175415
1731876908965.0,0.0,0.0,-20.0,0.0,0.0,0.0,0.0,0.0,0.0,0.0,0.0,0.0,0.0,0.0,0.0,3.458984375,0.0,0.0,-0.17320699989795685,0.0,0.0,-30.71133041381836,-896.481201171875,-16436.953125,-1385.1104736328125,42.58124923706055,-104.01248931884766,44.51387405395508,-0.26448240876197815,0.3441539704799652
1731876909015.0,0.0,0.0,-20.0,0.0,0.0,0.0,0.0,0.0,0.0,0.0,0.0,0.0,0.0,0.0,0.0,3.057281494140625,0.0,0.0,-0.17936460673809052,0.0,0.0,90.39290618896484,-988.9146728515625,-16498.017578125,-5343.62548828125,-50.983734130859375,-40.01210403442383,44.30829620361328,0.6091421246528625,0.6049318313598633
1731876909031.0,0.0,0.0,-20.0,0.0,0.0,0.0,0.0,0.0,0.0,0.0,0.0,0.0,0.0,0.0,0.0,2.85174560546875,0.0,0.0,-0.18130865693092346,0.0,0.0,167.0745391845703,-823.8990478515625,-16275.8427734375,-1128.8509521484375,-48.99673843383789,69.90843200683594,44.930572509765625,-0.1872016191482544,-0.4093438684940338
1731876909048.0,0.0,0.0,-20.0,0.0,0.0,0.0,0.0,0.0,0.0,0.0,0.0,0.0,0.0,0.0,0.0,2.64398193359375,0.0,0.0,-0.18321646749973297,0.0,0.0,106.91387176513672,-980.8487548828125,-16440.904296875,-1388.5523681640625,51.99396514892578,15.618036270141602,45.07121658325195,-0.799386739730835,0.06431330740451813
1731876909065.0,0.0,0.0,-20.0,0.0,0.0,0.0,0.0,0.0,0.0,0.0,0.0,0.0,0.0,0.0,0.0,2.43402099609375,0.0,0.0,-0.18507303297519684,0.0,0.0,-92.21807098388672,-813.5474853515625,-16395.55859375,-1615.30810546875,40.40559768676758,77.38262939453125,45.4742546081543,0.15991546213626862,0.00901500228792429
1731876909098.0,0.0,0.0,-20.0,0.0,0.0,0.0,0.0,0.0,0.0,0.0,0.0,0.0,0.0,0.0,0.0,2.221954345703125,0.0,0.0,-0.1886303871870041,0.0,0.0,63.72194290161133,-585.661865234375,-16397.03125,-1327.77783203125,-2.5847654342651367,57.16997146606445,44.80998611450195,-0.1301184445619583,0.42403289675712585
1731876909131.0,0.0,0.0,-20.0,0.0,0.0,0.0,0.0,0.0,0.0,0.0,0.0,0.0,0.0,0.0,0.0,1.7877197265625,0.0,0.0,-0.1919412612915039,0.0,0.0,-182.29623413085938,-506.1126403808594,-16365.2998046875,-1657.958251953125,77.55662536621094,-122.01509857177734,45.41447830200195,0.47569528222084045,-0.15434877574443817
1731876909148.0,0.0,0.0,-20.0,0.0,0.0,0.0,0.0,0.0,0.0,0.0,0.0,0.0,0.0,0.0,0.0,1.5677490234375,0.0,0.0,-0.19354675710201263,0.0,0.0,37.687686920166016,-367.9563293457031,-16426.578125,-1256.210693359375,-30.290346145629883,-168.42642211914062,45.40937423706055,-0.5865069031715393,-0.13874070346355438
1731876909165.0,0.0,0.0,-20.0,0.0,0.0,0.0,0.0,0.0,0.0,0.0,0.0,0.0,0.0,0.0,0.0,1.345977783203125,0.0,0.0,-0.1950862854719162,0.0,0.0,-80.19426727294922,-397.9485168457031,-16230.16796875,-1663.8162841796875,-51.5126838684082,34.45392990112305,44.829925537109375,-0.6930463910102844,-0.29329678416252136
1731876909198.0,0.0,0.0,-20.0,0.0,0.0,0.0,0.0,0.0,0.0,0.0,0.0,0.0,0.0,0.0,0.0,1.122406005859375,0.0,0.0,-0.1979909986257553,0.0,0.0,57.87669372558594,-362.8022766113281,-16309.9326171875,-1589.0477294921875,11.444148063659668,-20.84548568725586,44.29815673828125,-0.5491369366645813,0.5219612121582031
