ts,linPos_x,linPos_y,linPos_z,linVel_x,linVel_y,linVel_z,linAcc_x,linAcc_y,linAcc_z,force_x,force_y,force_z,torque_x,torque_y,torque_z,euler_x,euler_y,euler_z,angVel_x,angVel_y,angVel_z,accelerometer_x,accelerometer_y,accelerometer_z,gyroscope_x,gyroscope_y,gyroscope_z,magnetometer_x,magnetometer_y,magnetometer_z
1731876720471.0,0.0,0.0,-20.0,0.0,0.0,0.0,0.0,0.0,0.0,0.0,0.0,0.0,0.0,0.0,0.0,0.0,0.0,0.0,0.0,0.0,0.0,-69.37852478027344,61.85611343383789,-16451.50390625,-1.1568373441696167,61.0692138671875,9.350309371948242,44.892826080322266,-0.040200334042310715,-0.21224437654018402
1731876720488.0,0.0,0.0,-20.0,0.0,0.0,0.0,0.0,0.0,0.0,0.0,0.0,0.0,0.0,0.0,0.0,0.0,0.0,0.0,0.0,0.0,0.0,-118.49243927001953,-196.1675262451172,-16267.9384765625,-25.32957649230957,39.69196701049805,-37.661048889160156,45.06352233886719,-0.46912822127342224,-0.006324308458715677
1731876720505.0,0.0,0.0,-20.0,0.0,0.0,0.0,0.0,0.0,0.0,0.0,0.0,0.0,0.0,0.0,0.0,0.0,0.0,0.0,0.0,0.0,0.0,64.07747650146484,-30.48175621032715,-16296.701171875,45.34756851196289,34.96145248413086,6.696232318878174,45.0477409362793,-0.10210199654102325,-0.33258935809135437
1731876720538.0,0.0,0.0,-20.0,0.0,0.0,0.0,0.0,0.0,0.0,0.0,0.0,0.0,0.0,0.0,0.0,0.0,0.0,0.0,0.0,0.0,0.0,-96.54014587402344,110.2512435913086,-16498.32421875,8.605631828308105,-62.043434143066406,-52.586368560791016,43.971214294433594,-0.8151193261146545,0.007185404188930988
1731876720555.0,0.0,0.0,-20.0,0.0,0.0,0.0,0.0,0.0,0.0,0.0,0.0,0.0,0.0,0.0,0.0,0.0,0.0,0.0,0.0,0.0,0.0,35.42367172241211,-46.23340606689453,-16217.642578125,15.731612205505371,-36.784446716308594,63.837425231933594,45.6601448059082,0.6715418696403503,-0.2679634690284729
1731876720588.0,0.0,0.0,-20.0,0.0,0.0,0.0,0.0,0.0,0.0,0.0,0.0,0.0,0.0,0.0,0.0,0.0,0.0,0.0,0.0,0.0,0.0,-355.82000732421875,81.7742691040039,-16517.23046875,-21.789203643798828,20.5725040435791,55.77317810058594,45.418678283691406,0.025815851986408234,-0.09298134595155716
1731876720588.0,0.0,0.0,-20.0,0.0,0.0,0.0,0.0,0.0,0.0,0.0,0.0,0.0,0.0,0.0,0.0,0.0,0.0,0.0,0.0,0.0,0.0,-355.82000732421875,81.7742691040039,-16517.23046875,-21.789203643798828,20.5725040435791,55.77317810058594,45.418678283691406,0.025815851986408234,-0.09298134595155716
1731876720638.0,0.0,0.0,-20.0,0.0,0.0,0.0,0.0,0.0,0.0,0.0,0.0,0.0,0.0,0.0,0.0,0.0,0.0,0.0,0.0,0.0,0.0,-0.508011519908905,81.75519561767578,-16566.92578125,-23.843242645263672,108.51716613769531,-0.8796045184135437,44.909881591796875,-0.49678415060043335,0.3852674961090088
1731876720655.0,0.0,0.0,-20.0,0.0,0.0,0.0,0.0,0.0,0.0,0.0,0.0,0.0,0.0,0.0,0.0,0.0,0.0,0.0,0.0,0.0,0.0,-84.89303588867188,-91.32418060302734,-16286.634765625,36.15721130371094,-39.31255340576172,95.31529235839844,44.94449996948242,-0.07366924732923508,0.1581796407699585
1731876720688.0,0.0,0.0,-20.0,0.0,0.0,0.0,0.0,0.0,0.0,0.0,0.0,0.0,0.0,0.0,0.0,0.0,0.0,0.0,0.0,0.0,0.0,78.91031646728516,-12.706644058227539,-16227.205078125,34.92878723144531,41.65776062011719,53.365234375,44.881160736083984,-0.2881641089916229,-0.21515870094299316
1731876720688.0,0.0,0.0,-20.0,0.0,0.0,0.0,0.0,0.0,0.0,0.0,0.0,0.0,0.0,0.0,0.0,0.0,0.0,0.0,0.0,0.0,0.0,78.91031646728516,-12.706644058227539,-16227.205078125,34.92878723144531,41.65776062011719,53.365234375,44.881160736083984,-0.2881641089916229,-0.21515870094299316
1731876720705.0,0.0,0.0,-20.0,0.0,0.0,0.0,0.0,0.0,0.0,0.0,0.0,0.0,0.0,0.0,0.0,0.0,0.0,0.0,0.0,0.0,0.0,-220.9468231201172,-82.63543701171875,-16456.59765625,34.431114196777344,45.936866760253906,-22.426876068115234,45.08489227294922,0.07613548636436462,-0.14620696008205414
1731876720755.0,0.0,0.0,-20.0,0.0,0.0,0.0,0.0,0.0,0.0,0.0,0.0,0.0,0.0,0.0,0.0,0.0,0.0,0.0,0.0,0.0,0.0,-89.88256072998047,-101.39938354492188,-16467.978515625,-36.12547302246094,38.82387161254883,14.360671043395996,45.06850814819336,0.15063436329364777,-0.5087271332740784
1731876720772.0,0.0,0.0,-20.0,0.0,0.0,0.0,0.0,0.0,0.0,0.0,0.0,0.0,0.0,0.0,0.0,0.0,0.0,0.0,0.0,0.0,0.0,-38.96587371826172,-74.52725982666016,-16245.572265625,113.39128112792969,-37.95246124267578,46.945621490478516,44.75213623046875,-0.08423717319965363,0.0020822316873818636
1731876720788.0,0.0,0.0,-20.0,0.0,0.0,0.0,0.0,0.0,0.0,0.0,0.0,0.0,0.0,0.0,0.0,0.0,0.0,0.0,0.0,0.0,0.0,0.908418595790863,-24.07312774658203,-16409.9375,-78.09251403808594,-45.41355895996094,99.01885223388672,45.38077163696289,0.43756726384162903,0.02892317995429039
1731876720805.0,0.0,0.0,-20.0,0.0,0.0,0.0,0.0,0.0,0.0,0.0,0.0,0.0,0.0,0.0,0.0,0.0,0.0,0.0,0.0,0.0,0.0,-33.74967956542969,-93.06983947753906,-16399.19921875,-6.010910511016846,-65.62332916259766,56.19330596923828,44.86933135986328,0.1942080855369568,-0.2880624234676361
1731876720838.0,0.0,0.0,-20.0,0.0,0.0,0.0,0.0,0.0,0.0,0.0,0.0,0.0,0.0,0.0,0.0,0.0,0.0,0.0,0.0,0.0,0.0,76.61216735839844,-87.33597564697266,-16592.1171875,-47.3995246887207,71.23998260498047,-91.17601776123047,45.010536193847656,-0.17900151014328003,0.07234904915094376
1731876720872.0,0.0,0.0,-20.0,0.0,0.0,0.0,0.0,0.0,0.0,0.0,0.0,0.0,0.0,0.0,0.0,0.0,0.0,0.0,0.0,0.0,0.0,-167.47280883789062,-34.06562805175781,-16349.509765625,-2.6614999771118164,-39.77530288696289,-14.57487678527832,45.077823638916016,-0.35308200120925903,0.18954777717590332
1731876720889.0,0.0,0.0,-20.0,0.0,0.0,0.0,0.0,0.0,0.0,0.0,0.0,0.0,0.0,0.0,0.0,0.0,0.0,0.0,0.0,0.0,0.0,11.804673194885254,30.778526306152344,-16498.384765625,110.37622833251953,59.08405303955078,-77.18353271484375,45.017486572265625,0.10959447175264359,-0.23177985846996307
1731876720905.0,0.0,0.0,-20.0,0.0,0.0,0.0,0.0,0.0,0.0,0.0,0.0,0.0,0.0,0.0,0.0,0.0,0.0,0.0,-0.03191715478897095,0.0,0.0,106.16120910644531,-42.71128845214844,-16399.529296875,-287.9719543457031,-37.5030632019043,27.389019012451172,44.4196662902832,0.054571159183979034,0.199843168258667
1731876720939.0,0.0,0.0,-20.0,0.0,0.0,0.0,0.0,0.0,0.0,0.0,0.0,0.0,0.0,0.0,0.0,-0.03657437115907669,0.0,0.0,-0.014871548861265182,0.0,0.0,58.179420471191406,-4.730902671813965,-16633.447265625,-103.41268920898438,-1.0452370643615723,78.24288940429688,44.711036682128906,0.07209393382072449,0.18346747756004333
1731876720957.0,0.0,0.0,-20.0,0.0,0.0,0.0,0.0,0.0,0.0,0.0,0.0,0.0,0.0,0.0,0.0,-0.053615909069776535,0.0,0.0,0.0021356556098908186,0.0,0.0,-173.3494873046875,-162.93399047851562,-16460.5,29.099227905273438,120.227783203125,66.4892807006836,45.02125930786133,0.28397682309150696,0.35221943259239197
1731876720989.0,0.0,0.0,-20.0,0.0,0.0,0.0,0.0,0.0,0.0,0.0,0.0,0.0,0.0,0.0,0.0,-0.039000216871500015,0.0,0.0,0.01907503977417946,0.0,0.0,70.8980484008789,-130.38552856445312,-16404.091796875,167.47598266601562,-86.33702850341797,30.250083923339844,44.68281555175781,0.03966992348432541,-0.28189924359321594
1731876720989.0,0.0,0.0,-20.0,0.0,0.0,0.0,0.0,0.0,0.0,0.0,0.0,0.0,0.0,0.0,0.0,-0.039000216871500015,0.0,0.0,0.01907503977417946,0.0,0.0,70.8980484008789,-130.38552856445312,-16404.091796875,167.47598266601562,-86.33702850341797,30.250083923339844,44.68281555175781,0.03966992348432541,-0.28189924359321594
1731876721040.0,0.0,0.0,-20.0,0.0,0.0,0.0,0.0,0.0,0.0,0.0,0.0,0.0,0.0,0.0,0.0,0.014373779296875,0.0,0.0,0.05263277143239975,0.0,0.0,164.33616638183594,-28.595264434814453,-16405.388671875,312.6489562988281,-26.7590274810791,-61.7084846496582,45.32060241699219,0.3212919235229492,-0.033201295882463455
1731876721055.0,0.0,0.0,-20.0,0.0,0.0,0.0,0.0,0.0,0.0,0.0,0.0,0.0,0.0,0.0,0.0,0.074676513671875,0.0,0.0,0.06929473578929901,0.0,0.0,-56.773033142089844,137.49786376953125,-16239.2978515625,487.8939514160156,-16.695510864257812,-48.909358978271484,44.71864318847656,0.32641148567199707,0.029158713296055794
1731876721072.0,0.0,0.0,-20.0,0.0,0.0,0.0,0.0,0.0,0.0,0.0,0.0,0.0,0.0,0.0,0.0,0.154083251953125,0.0,0.0,0.06908980756998062,0.0,0.0,-93.09651947021484,-66.9730453491211,-16430.6875,474.6680603027344,-52.756343841552734,72.05442810058594,44.96746826171875,-0.21095149219036102,0.29489293694496155
1731876721089.0,0.0,0.0,-20.0,0.0,0.0,0.0,0.0,0.0,0.0,0.0,0.0,0.0,0.0,0.0,0.0,0.233245849609375,0.0,0.0,0.06886711716651917,0.0,0.0,55.86296844482422,-12.554000854492188,-16438.857421875,477.86798095703125,-87.81954193115234,94.65752410888672,44.90903854370117,-0.09400489926338196,0.6033384203910828
1731876721106.0,0.0,0.0,-20.0,0.0,0.0,0.0,0.0,0.0,0.0,0.0,0.0,0.0,0.0,0.0,0.0,0.312164306640625,0.0,0.0,0.07694349437952042,0.0,0.0,-121.03633117675781,-132.00662231445312,-16380.86328125,596.7438354492188,-102.41402435302734,48.14141845703125,44.223182678222656,0.3515757620334625,-0.2167845517396927
1731876721156.0,0.0,0.0,-20.0,0.0,0.0,0.0,0.0,0.0,0.0,0.0,0.0,0.0,0.0,0.0,0.0,0.48779296875,0.0,0.0,0.0842147096991539,0.0,0.0,37.89140319824219,-82.34869384765625,-16407.232421875,496.1412658691406,173.75546264648438,-8.82564640045166,44.85480880737305,0.00704473489895463,-0.15074053406715393
1731876721172.0,0.0,0.0,-20.0,0.0,0.0,0.0,0.0,0.0,0.0,0.0,0.0,0.0,0.0,0.0,0.0,0.584320068359375,0.0,0.0,0.08382157981395721,0.0,0.0,22.439205169677734,-49.49156951904297,-16239.4150390625,602.0142211914062,4115.13916015625,-56.637184143066406,45.623046875,0.07586890459060669,-0.10989933460950851
1731876721189.0,0.0,0.0,-20.0,0.0,0.0,0.0,0.0,0.0,0.0,0.0,0.0,0.0,0.0,0.0,0.0,0.68035888671875,0.0,0.0,0.08340062201023102,0.0,0.0,51.16848373413086,-156.0585479736328,-16460.451171875,637.9426879882812,-36.49704360961914,-99.12360382080078,45.002540588378906,0.18637023866176605,0.17197610437870026
1731876721206.0,0.0,0.0,-20.0,0.0,0.0,0.0,0.0,0.0,0.0,0.0,0.0,0.0,0.0,0.0,0.0,0.77593994140625,0.0,0.0,0.08296114206314087,0.0,0.0,45.248294830322266,-160.68341064453125,-16416.4375,636.2498168945312,30.541603088378906,44.67829895019531,45.31441116333008,0.25050806999206543,-0.0002608979702927172
1731876721239.0,0.0,0.0,-20.0,0.0,0.0,0.0,0.0,0.0,0.0,0.0,0.0,0.0,0.0,0.0,0.0,0.871002197265625,0.0,0.0,0.09000404179096222,0.0,0.0,-217.82415771484375,-365.26470947265625,-16541.23828125,596.0550537109375,96.0819320678711,29.666032791137695,44.89154815673828,0.13357681035995483,0.274513840675354
1731876721272.0,0.0,0.0,-20.0,0.0,0.0,0.0,0.0,0.0,0.0,0.0,0.0,0.0,0.0,0.0,0.0,1.076629638671875,0.0,0.0,0.0967646986246109,0.0,0.0,49.11537170410156,-136.82342529296875,-16511.083984375,664.1793212890625,-43.06661605834961,92.2529296875,45.4866943359375,-0.11755160987377167,0.28801101446151733
1731876721290.0,0.0,0.0,-20.0,0.0,0.0,0.0,0.0,0.0,0.0,0.0,0.0,0.0,0.0,0.0,0.0,1.1875,0.0,0.0,0.0960594043135643,0.0,0.0,-144.4521942138672,-210.6862335205078,-16201.12890625,578.3892822265625,-63.50175476074219,-5.647043228149414,45.32314682006836,0.22294822335243225,-0.13310593366622925
1731876721306.0,0.0,0.0,-20.0,0.0,0.0,0.0,0.0,0.0,0.0,0.0,0.0,0.0,0.0,0.0,0.0,1.297576904296875,0.0,0.0,0.10318263620138168,0.0,0.0,-124.04621887207031,-545.3453369140625,-16365.66796875,771.994384765625,55.24618911743164,101.3140640258789,44.49957275390625,0.15309926867485046,-0.3931378126144409
1731876721340.0,0.0,0.0,-20.0,0.0,0.0,0.0,0.0,0.0,0.0,0.0,0.0,0.0,0.0,0.0,0.0,1.415802001953125,0.0,0.0,0.11691401153802872,0.0,0.0,172.39529418945312,-393.6239929199219,-16493.98828125,744.401611328125,86.62379455566406,-15.339774131774902,44.95379638671875,0.1168542206287384,-0.607115626335144
1731876721356.0,0.0,0.0,-20.0,0.0,0.0,0.0,0.0,0.0,0.0,0.0,0.0,0.0,0.0,0.0,0.0,1.549774169921875,0.0,0.0,0.1236119419336319,0.0,0.0,33.71250534057617,-233.45608520507812,-16389.00390625,664.2382202148438,66.02355194091797,146.05352783203125,45.303123474121094,-0.05820503458380699,0.07722087949514389
1731876721389.0,0.0,0.0,-20.0,0.0,0.0,0.0,0.0,0.0,0.0,0.0,0.0,0.0,0.0,0.0,0.0,1.83184814453125,0.0,0.0,0.12142978608608246,0.0,0.0,17.389846801757812,-496.06439208984375,-16490.216796875,1072.0467529296875,62.565120697021484,22.347553253173828,44.84727096557617,-0.4614301919937134,0.06404130905866623
1731876721389.0,0.0,0.0,-20.0,0.0,0.0,0.0,0.0,0.0,0.0,0.0,0.0,0.0,0.0,0.0,0.0,1.83184814453125,0.0,0.0,0.12142978608608246,0.0,0.0,17.389846801757812,-496.06439208984375,-16490.216796875,1072.0467529296875,62.565120697021484,22.347553253173828,44.84727096557617,-0.4614301919937134,0.06404130905866623
1731876721440.0,0.0,0.0,-20.0,0.0,0.0,0.0,0.0,0.0,0.0,0.0,0.0,0.0,0.0,0.0,0.0,2.117340087890625,0.0,0.0,0.13242384791374207,0.0,0.0,-41.41872024536133,-582.6160888671875,-16237.3447265625,831.7739868164062,91.18413543701172,-49.255043029785156,45.477760314941406,0.5492781400680542,-0.006781290285289288
1731876721456.0,0.0,0.0,-20.0,0.0,0.0,0.0,0.0,0.0,0.0,0.0,0.0,0.0,0.0,0.0,0.0,2.269073486328125,0.0,0.0,0.13833260536193848,0.0,0.0,140.0001220703125,-768.4109497070312,-16372.927734375,943.2012939453125,57.76475524902344,-19.707883834838867,45.21185302734375,-0.2489333599805832,-0.17776687443256378
1731876721473.0,0.0,0.0,-20.0,0.0,0.0,0.0,0.0,0.0,0.0,0.0,0.0,0.0,0.0,0.0,0.0,2.4276123046875,0.0,0.0,0.1368146538734436,0.0,0.0,30.04250717163086,-783.3825073242188,-16226.42578125,784.430419921875,-0.5960248112678528,54.98252868652344,45.13419723510742,-0.039825521409511566,0.10494377464056015
1731876721489.0,0.0,0.0,-20.0,0.0,0.0,0.0,0.0,0.0,0.0,0.0,0.0,0.0,0.0,0.0,0.0,2.584381103515625,0.0,0.0,0.13529658317565918,0.0,0.0,-92.8766860961914,-661.1446533203125,-16417.7890625,930.2022705078125,104.63784790039062,26.88370132446289,44.5958366394043,-0.07955015450716019,0.5042526721954346
1731876721506.0,0.0,0.0,-20.0,0.0,0.0,0.0,0.0,0.0,0.0,0.0,0.0,0.0,0.0,0.0,0.0,2.739410400390625,0.0,0.0,0.133770152926445,0.0,0.0,-106.3419189453125,-791.5051879882812,-16405.21484375,1073.4095458984375,-1.4429970979690552,146.2925262451172,45.05757141113281,-0.032672733068466187,-0.23638342320919037
1731876721539.0,0.0,0.0,-20.0,0.0,0.0,0.0,0.0,0.0,0.0,0.0,0.0,0.0,0.0,0.0,0.0,2.8927001953125,0.0,0.0,0.13055062294006348,0.0,0.0,107.44216918945312,-793.2852172851562,-16400.599609375,784.4632568359375,-26.063383102416992,58.86908721923828,44.72211456298828,-0.13160079717636108,0.14622968435287476
1731876721573.0,0.0,0.0,-20.0,0.0,0.0,0.0,0.0,0.0,0.0,0.0,0.0,0.0,0.0,0.0,0.0,3.18994140625,0.0,0.0,0.12710510194301605,0.0,0.0,200.77166748046875,-912.1244506835938,-16398.578125,915.399658203125,-144.86123657226562,-61.52693176269531,45.340538024902344,0.373888224363327,0.06167110800743103
1731876721589.0,0.0,0.0,-20.0,0.0,0.0,0.0,0.0,0.0,0.0,0.0,0.0,0.0,0.0,0.0,0.0,3.335601806640625,0.0,0.0,0.12538179755210876,0.0,0.0,25.115447998046875,-1023.650146484375,-16255.546875,1100.1781005859375,25.263296127319336,46.508056640625,44.72013473510742,-0.007999342866241932,-0.8341138958930969
1731876721606.0,0.0,0.0,-20.0,0.0,0.0,0.0,0.0,0.0,0.0,0.0,0.0,0.0,0.0,0.0,0.0,3.479278564453125,0.0,0.0,0.12358501553535461,0.0,0.0,-132.45005798339844,-1085.6790771484375,-16267.7451171875,969.3331298828125,55.855323791503906,70.63043212890625,45.23869323730469,-0.028036458417773247,-0.2512844204902649
1731876721640.0,0.0,0.0,-20.0,0.0,0.0,0.0,0.0,0.0,0.0,0.0,0.0,0.0,0.0,0.0,0.0,3.620880126953125,0.0,0.0,0.11991404742002487,0.0,0.0,-58.381736755371094,-1206.80615234375,-16455.951171875,821.082763671875,-112.12086486816406,-20.645458221435547,45.15697479248047,-0.20511434972286224,-0.047436028718948364
1731876721673.0,0.0,0.0,-20.0,0.0,0.0,0.0,0.0,0.0,0.0,0.0,0.0,0.0,0.0,0.0,0.0,3.893585205078125,0.0,0.0,0.11612306535243988,0.0,0.0,107.86357116699219,-1038.1102294921875,-16227.810546875,895.1959838867188,-40.67839431762695,-34.725746154785156,44.812564849853516,-0.3392783999443054,-0.339118629693985
1731876721690.0,0.0,0.0,-20.0,0.0,0.0,0.0,0.0,0.0,0.0,0.0,0.0,0.0,0.0,0.0,0.0,4.026641845703125,0.0,0.0,0.11416459828615189,0.0,0.0,40.11601638793945,-1237.618896484375,-16283.5693359375,905.5919799804688,-68.89892578125,3.4245781898498535,45.51427459716797,-0.3151572346687317,-0.17949505150318146
1731876721690.0,0.0,0.0,-20.0,0.0,0.0,0.0,0.0,0.0,0.0,0.0,0.0,0.0,0.0,0.0,0.0,4.026641845703125,0.0,0.0,0.11416459828615189,0.0,0.0,40.11601638793945,-1237.618896484375,-16283.5693359375,905.5919799804688,-68.89892578125,3.4245781898498535,45.51427459716797,-0.3151572346687317,-0.17949505150318146
1731876721739.0,0.0,0.0,-20.0,0.0,0.0,0.0,0.0,0.0,0.0,0.0,0.0,0.0,0.0,0.0,0.0,4.286102294921875,0.0,0.0,0.10820372402667999,0.0,0.0,126.94840240478516,-1166.8663330078125,-16381.7412109375,733.3120727539062,-15.923934936523438,56.573951721191406,45.41221618652344,0.44277018308639526,0.8652926087379456
1731876721756.0,0.0,0.0,-20.0,0.0,0.0,0.0,0.0,0.0,0.0,0.0,0.0,0.0,0.0,0.0,0.0,4.41009521484375,0.0,0.0,0.10614440590143204,0.0,0.0,22.167312622070312,-1408.933837890625,-16319.91796875,767.51513671875,-61.24999237060547,90.41587829589844,44.9470100402832,0.07592733204364777,0.7351729869842529
1731876721789.0,0.0,0.0,-20.0,0.0,0.0,0.0,0.0,0.0,0.0,0.0,0.0,0.0,0.0,0.0,0.0,4.650970458984375,0.0,0.0,0.10188373923301697,0.0,0.0,-16.07372283935547,-1385.29833984375,-16376.1533203125,733.3517456054688,-145.4405517578125,-7.1565446853637695,44.74870681762695,0.32121777534484863,-0.4158613979816437
1731876721789.0,0.0,0.0,-20.0,0.0,0.0,0.0,0.0,0.0,0.0,0.0,0.0,0.0,0.0,0.0,0.0,4.650970458984375,0.0,0.0,0.10188373923301697,0.0,0.0,-16.07372283935547,-1385.29833984375,-16376.1533203125,733.3517456054688,-145.4405517578125,-7.1565446853637695,44.74870681762695,0.32121777534484863,-0.4158613979816437
1731876721806.0,0.0,0.0,-20.0,0.0,0.0,0.0,0.0,0.0,0.0,0.0,0.0,0.0,0.0,0.0,0.0,4.7677001953125,0.0,0.0,0.09975357353687286,0.0,0.0,-27.04723358154297,-1290.20947265625,-16210.9775390625,755.2603759765625,-5.629597187042236,20.515161514282227,45.072078704833984,0.05529586598277092,0.3303281366825104
1731876721856.0,0.0,0.0,-20.0,0.0,0.0,0.0,0.0,0.0,0.0,0.0,0.0,0.0,0.0,0.0,0.0,4.991241455078125,0.0,0.0,0.09313701838254929,0.0,0.0,-133.1449432373047,-1446.4930419921875,-16212.0302734375,758.6354370117188,-36.381134033203125,46.345279693603516,45.12214279174805,-0.014376532286405563,-0.08981559425592422
1731876721873.0,0.0,0.0,-20.0,0.0,0.0,0.0,0.0,0.0,0.0,0.0,0.0,0.0,0.0,0.0,0.0,5.09796142578125,0.0,0.0,0.09083466231822968,0.0,0.0,24.18695831298828,-1487.5614013671875,-16196.31640625,837.9115600585938,-65.3301010131836,30.455764770507812,44.977962493896484,-0.055605433881282806,-0.02984130196273327
1731876721889.0,0.0,0.0,-20.0,0.0,0.0,0.0,0.0,0.0,0.0,0.0,0.0,0.0,0.0,0.0,0.0,5.202056884765625,0.0,0.0,0.08860720694065094,0.0,0.0,54.30636978149414,-1714.7999267578125,-16280.7099609375,734.0620727539062,4005.3388671875,-37.76454544067383,45.06475830078125,-0.020725427195429802,-0.49600356817245483
1731876721906.0,0.0,0.0,-20.0,0.0,0.0,0.0,0.0,0.0,0.0,0.0,0.0,0.0,0.0,0.0,0.0,5.3035888671875,0.0,0.0,0.08622878044843674,0.0,0.0,19.033050537109375,-1497.8865966796875,-16344.1884765625,603.497802734375,-36.16808319091797,105.04385375976562,44.95781326293945,-0.13870902359485626,-0.1631578505039215
1731876721940.0,0.0,0.0,-20.0,0.0,0.0,0.0,0.0,0.0,0.0,0.0,0.0,0.0,0.0,0.0,0.0,5.40240478515625,0.0,0.0,0.0815354734659195,0.0,0.0,6.990233898162842,-1779.2781982421875,-16220.8134765625,624.3241577148438,-29.72878646850586,-190.6361541748047,44.629940032958984,-0.43872904777526855,0.5898237228393555
1731876721973.0,0.0,0.0,-20.0,0.0,0.0,0.0,0.0,0.0,0.0,0.0,0.0,0.0,0.0,0.0,0.0,5.5865478515625,0.0,0.0,0.07674277573823929,0.0,0.0,202.89073181152344,-1634.5340576171875,-16313.57421875,600.2523803710938,-24.62228775024414,-35.82784652709961,44.90325927734375,-0.29974523186683655,-0.09477227181196213
1731876721989.0,0.0,0.0,-20.0,0.0,0.0,0.0,0.0,0.0,0.0,0.0,0.0,0.0,0.0,0.0,0.0,5.67449951171875,0.0,0.0,0.07432739436626434,0.0,0.0,6.016626834869385,-1553.506103515625,-16486.232421875,506.7468566894531,-45.29401779174805,50.8869743347168,44.8225212097168,0.038581136614084244,-0.28240931034088135
1731876722006.0,0.0,0.0,-20.0,0.0,0.0,0.0,0.0,0.0,0.0,0.0,0.0,0.0,0.0,0.0,0.0,5.759674072265625,0.0,0.0,0.07187354564666748,0.0,0.0,-116.662109375,-1595.8380126953125,-16264.1064453125,467.1001281738281,-79.0546875,67.21309661865234,45.710044860839844,-0.10027478635311127,0.4016364812850952
1731876722039.0,0.0,0.0,-20.0,0.0,0.0,0.0,0.0,0.0,0.0,0.0,0.0,0.0,0.0,0.0,0.0,5.842041015625,0.0,0.0,0.0669792965054512,0.0,0.0,-8.921727180480957,-1623.09326171875,-16296.578125,516.8389892578125,-22.3705997467041,-5.978115081787109,44.70038604736328,0.05572688952088356,0.3177729845046997
1731876722073.0,0.0,0.0,-20.0,0.0,0.0,0.0,0.0,0.0,0.0,0.0,0.0,0.0,0.0,0.0,0.0,5.99261474609375,0.0,0.0,0.06188260391354561,0.0,0.0,77.14653015136719,-1755.1817626953125,-16341.642578125,367.1412048339844,-2.831150770187378,-58.75514221191406,44.406795501708984,0.16782449185848236,0.13783995807170868
1731876722090.0,0.0,0.0,-20.0,0.0,0.0,0.0,0.0,0.0,0.0,0.0,0.0,0.0,0.0,0.0,0.0,6.06353759765625,0.0,0.0,0.05936332419514656,0.0,0.0,-116.29641723632812,-1759.591064453125,-16362.2724609375,580.3203735351562,93.88545227050781,-13.096997261047363,44.62908935546875,0.45114871859550476,-0.026867425069212914
1731876722090.0,0.0,0.0,-20.0,0.0,0.0,0.0,0.0,0.0,0.0,0.0,0.0,0.0,0.0,0.0,0.0,6.06353759765625,0.0,0.0,0.05936332419514656,0.0,0.0,-116.29641723632812,-1759.591064453125,-16362.2724609375,580.3203735351562,93.88545227050781,-13.096997261047363,44.62908935546875,0.45114871859550476,-0.026867425069212914
1731876722140.0,0.0,0.0,-20.0,0.0,0.0,0.0,0.0,0.0,0.0,0.0,0.0,0.0,0.0,0.0,0.0,6.1966552734375,0.0,0.0,0.05162535607814789,0.0,0.0,-188.0715789794922,-1769.4130859375,-16102.0556640625,446.0914611816406,-63.71677780151367,65.22354125976562,45.907657623291016,0.3823074698448181,0.22826595604419708
1731876722156.0,0.0,0.0,-20.0,0.0,0.0,0.0,0.0,0.0,0.0,0.0,0.0,0.0,0.0,0.0,0.0,6.255828857421875,0.0,0.0,0.04906392842531204,0.0,0.0,27.189329147338867,-1908.50048828125,-16259.326171875,459.0036926269531,-142.7236328125,-53.16061782836914,44.85652160644531,-0.5729550123214722,-0.2721524238586426
1731876722190.0,0.0,0.0,-20.0,0.0,0.0,0.0,0.0,0.0,0.0,0.0,0.0,0.0,0.0,0.0,0.0,6.365264892578125,0.0,0.0,0.04378639906644821,0.0,0.0,162.79478454589844,-1727.4248046875,-16231.06640625,389.97662353515625,44.0163688659668,-13.634368896484375,45.25775909423828,0.05935795605182648,0.20217405259609222
1731876722190.0,0.0,0.0,-20.0,0.0,0.0,0.0,0.0,0.0,0.0,0.0,0.0,0.0,0.0,0.0,0.0,6.365264892578125,0.0,0.0,0.04378639906644821,0.0,0.0,162.79478454589844,-1727.4248046875,-16231.06640625,389.97662353515625,44.0163688659668,-13.634368896484375,45.25775909423828,0.05935795605182648,0.20217405259609222
1731876722206.0,0.0,0.0,-20.0,0.0,0.0,0.0,0.0,0.0,0.0,0.0,0.0,0.0,0.0,0.0,0.0,6.415435791015625,0.0,0.0,0.0411868691444397,0.0,0.0,28.9642333984375,-1766.9949951171875,-16214.033203125,277.5384521484375,-77.42063903808594,-267.8837890625,45.4743537902832,0.2233956754207611,-0.3392939269542694
1731876722256.0,0.0,0.0,-20.0,0.0,0.0,0.0,0.0,0.0,0.0,0.0,0.0,0.0,0.0,0.0,0.0,6.503662109375,0.0,0.0,0.033177509903907776,0.0,0.0,41.14522171020508,-1966.4468994140625,-16265.74609375,198.17764282226562,20.559776306152344,10.555455207824707,45.068275451660156,-0.30131134390830994,-0.0023741682525724173
1731876722273.0,0.0,0.0,-20.0,0.0,0.0,0.0,0.0,0.0,0.0,0.0,0.0,0.0,0.0,0.0,0.0,6.54168701171875,0.0,0.0,0.030409516766667366,0.0,0.0,41.28121566772461,-1715.9031982421875,-16189.857421875,276.05413818359375,-125.9884262084961,18.642925262451172,45.34003448486328,0.1987076997756958,-0.26998013257980347
1731876722290.0,0.0,0.0,-20.0,0.0,0.0,0.0,0.0,0.0,0.0,0.0,0.0,0.0,0.0,0.0,0.0,6.5765380859375,0.0,0.0,0.027760719880461693,-0.040430936962366104,-4.656612873077393e-10,70.17790985107422,-1748.0323486328125,-16292.740234375,264.6456604003906,-417.70733642578125,49.248355865478516,44.26279067993164,0.23159363865852356,0.9387712478637695
1731876722307.0,0.0,0.0,-20.0,0.0,0.0,0.0,0.0,0.0,0.0,0.0,0.0,0.0,0.0,0.0,0.0,6.608367919921875,-0.046024106442928314,-0.005319023504853249,0.02502533793449402,-0.03190319240093231,-1.7826096154749393e-10,45.556884765625,-1920.56884765625,-16127.234375,257.763427734375,-299.8640441894531,-51.62959289550781,45.01280975341797,-0.33766910433769226,0.045056939125061035
1731876722358.0,0.0,0.0,-20.0,0.0,0.0,0.0,0.0,0.0,0.0,0.0,0.0,0.0,0.0,0.0,0.0,6.659454345703125,-0.08957792073488235,-0.0103759765625,0.016719676554203033,0.010618175379931927,2.546585164964199e-11,62.0262336730957,-1855.29833984375,-16364.3037109375,217.22938537597656,97.73735046386719,173.08248901367188,44.62137222290039,-0.17990507185459137,-0.06303584575653076
1731876722374.0,0.0,0.0,-20.0,0.0,0.0,0.0,0.0,0.0,0.0,0.0,0.0,0.0,0.0,0.0,0.0,6.678619384765625,-0.07749272882938385,-0.00897216796875,0.014079922810196877,0.01907457411289215,2.1827872842550278e-11,-43.71297073364258,-1796.3543701171875,-16080.845703125,212.27391052246094,32.133827209472656,-53.63762664794922,45.07632827758789,0.12274599075317383,-0.20026901364326477
1731876722390.0,0.0,0.0,-20.0,0.0,0.0,0.0,0.0,0.0,0.0,0.0,0.0,0.0,0.0,0.0,0.0,6.69476318359375,-0.055783551186323166,-0.00640869140625,0.01139655988663435,0.0444120429456234,-1.000444171950221e-11,-94.35873413085938,-1896.9090576171875,-16354.78125,130.74337768554688,355.42236328125,57.7966194152832,44.92365264892578,-0.7701841592788696,-0.04201849550008774
1731876722407.0,0.0,0.0,-20.0,0.0,0.0,0.0,0.0,0.0,0.0,0.0,0.0,0.0,0.0,0.0,0.0,6.70782470703125,-0.005238784942775965,-0.00048214031266979873,0.008680149912834167,0.052758730947971344,-2.5011104298755527e-12,-141.74720764160156,-2094.57666015625,-16342.064453125,55.35009765625,321.5880126953125,31.37241554260254,44.7817497253418,0.5305860638618469,0.1734604686498642
1731876722440.0,0.0,0.0,-20.0,0.0,0.0,0.0,0.0,0.0,0.0,0.0,0.0,0.0,0.0,0.0,0.0,6.7177734375,0.0548095703125,0.006584829185158014,0.003300925251096487,0.07769051939249039,-5.784386303275824e-10,-201.9639434814453,-1972.1976318359375,-16314.875,-35.45210266113281,610.177490234375,27.053390502929688,45.17273712158203,0.001506694359704852,-0.15862993896007538
1731876722457.0,0.0,0.0,-20.0,0.0,0.0,0.0,0.0,0.0,0.0,0.0,0.0,0.0,0.0,0.0,0.0,6.7215576171875,0.143218994140625,0.017002006992697716,0.0005695931031368673,0.08583550900220871,4.547473508864641e-12,280.8267517089844,-2048.673828125,-16254.533203125,130.01954650878906,614.8079223632812,3902.579345703125,45.00227355957031,0.19093161821365356,-0.22599434852600098
1731876722491.0,0.0,0.0,-20.0,0.0,0.0,0.0,0.0,0.0,0.0,0.0,0.0,0.0,0.0,0.0,0.0,6.7198486328125,0.357269287109375,0.042228326201438904,-0.004992798436433077,0.10187782347202301,2.7284841053187847e-10,-52.963775634765625,-2065.38525390625,-16289.17578125,8.552445411682129,779.7344360351562,25.792579650878906,44.86027145385742,-0.5892727971076965,0.16935035586357117
1731876722491.0,0.0,0.0,-20.0,0.0,0.0,0.0,0.0,0.0,0.0,0.0,0.0,0.0,0.0,0.0,0.0,6.7198486328125,0.357269287109375,0.042228326201438904,-0.004992798436433077,0.10187782347202301,2.7284841053187847e-10,-52.963775634765625,-2065.38525390625,-16289.17578125,8.552445411682129,779.7344360351562,25.792579650878906,44.86027145385742,-0.5892727971076965,0.16935035586357117
1731876722507.0,0.0,0.0,-20.0,0.0,0.0,0.0,0.0,0.0,0.0,0.0,0.0,0.0,0.0,0.0,0.0,6.714202880859375,0.47320556640625,0.05588366836309433,-0.007752249948680401,0.10976879298686981,-1.8917489796876907e-10,199.1055908203125,-1972.6680908203125,-16249.427734375,-30.882474899291992,885.290771484375,21.539934158325195,44.713706970214844,-0.07210761308670044,0.7896818518638611
1731876722557.0,0.0,0.0,-20.0,0.0,0.0,0.0,0.0,0.0,0.0,0.0,0.0,0.0,0.0,0.0,0.0,6.6905517578125,0.731353759765625,0.08622711151838303,-0.015914693474769592,0.12467627227306366,-5.238689482212067e-10,187.31600952148438,-1871.5394287109375,-16331.41796875,-127.05073547363281,991.6703491210938,-16.828886032104492,45.2718620300293,-0.3050525188446045,0.3287253677845001
1731876722574.0,0.0,0.0,-20.0,0.0,0.0,0.0,0.0,0.0,0.0,0.0,0.0,0.0,0.0,0.0,0.0,6.67254638671875,0.873260498046875,0.10285158455371857,-0.018640950322151184,0.1321844607591629,-2.0954757928848267e-09,384.68011474609375,-2004.567626953125,-16192.87109375,-173.67825317382812,1129.3291015625,-41.78968811035156,45.24540328979492,-0.5572665929794312,0.5243133306503296
1731876722590.0,0.0,0.0,-20.0,0.0,0.0,0.0,0.0,0.0,0.0,0.0,0.0,0.0,0.0,0.0,0.0,6.651458740234375,1.023712158203125,0.12042660266160965,-0.021272709593176842,0.13959620893001556,2.240994945168495e-09,452.80810546875,-2000.9376220703125,-16281.7939453125,-247.39404296875,979.8858642578125,-33.96245574951172,45.027889251708984,-0.2974396347999573,0.8403701782226562
1731876722607.0,0.0,0.0,-20.0,0.0,0.0,0.0,0.0,0.0,0.0,0.0,0.0,0.0,0.0,0.0,0.0,6.62744140625,1.182586669921875,0.1389254331588745,-0.024077067151665688,0.13878516852855682,-1.3969838619232178e-09,391.0472412109375,-1941.0030517578125,-16327.677734375,-187.26148986816406,1082.9375,-68.24443054199219,44.15629959106445,0.0565827302634716,1.4973020553588867
1731876722641.0,0.0,0.0,-20.0,0.0,0.0,0.0,0.0,0.0,0.0,0.0,0.0,0.0,0.0,0.0,0.0,6.600250244140625,1.340576171875,0.15724720060825348,-0.029496092349290848,0.1450410783290863,1.2223608791828156e-09,673.9248046875,-1827.816650390625,-16207.435546875,-152.94857788085938,1102.4698486328125,-73.29302978515625,44.63548278808594,0.01068259496241808,1.2915071249008179
1731876722679.0,0.0,0.0,-20.0,0.0,0.0,0.0,0.0,0.0,0.0,0.0,0.0,0.0,0.0,0.0,0.0,6.530609130859375,1.6787109375,0.1961791217327118,-0.035575803369283676,0.15065009891986847,-2.0954757928848267e-09,391.443115234375,-1936.8819580078125,-16326.884765625,-181.90386962890625,1025.181640625,-24.753026962280273,44.81696319580078,-0.7219851016998291,0.8662652969360352
1731876722690.0,0.0,0.0,-20.0,0.0,0.0,0.0,0.0,0.0,0.0,0.0,0.0,0.0,0.0,0.0,0.0,6.490447998046875,1.8502197265625,0.21576237678527832,-0.03743888810276985,0.14988628029823303,-2.3283064365386963e-10,595.0824584960938,-1842.505126953125,-16188.4873046875,-402.6590881347656,1433.5025634765625,35.149532318115234,45.369117736816406,0.15766683220863342,0.989145815372467
1731876722707.0,0.0,0.0,-20.0,0.0,0.0,0.0,0.0,0.0,0.0,0.0,0.0,0.0,0.0,0.0,0.0,6.44818115234375,2.0208740234375,0.23512549698352814,-0.04007352888584137,0.1487676203250885,-1.5133991837501526e-09,458.53216552734375,-1853.221923828125,-16277.86328125,-189.02972412109375,1445.295654296875,13.309842109680176,44.91288375854492,0.32395392656326294,1.9482250213623047
1731876722757.0,0.0,0.0,-20.0,0.0,0.0,0.0,0.0,0.0,0.0,0.0,0.0,0.0,0.0,0.0,0.0,6.3515625,2.356903076171875,0.27285510301589966,-0.04796621575951576,0.15267977118492126,1.6298145055770874e-09,661.1724853515625,-1897.3319091796875,-16273.4580078125,-345.32452392578125,1182.82861328125,74.19749450683594,44.59055709838867,-0.03812664747238159,2.0150179862976074
1731876722774.0,0.0,0.0,-20.0,0.0,0.0,0.0,0.0,0.0,0.0,0.0,0.0,0.0,0.0,0.0,0.0,6.29742431640625,2.53082275390625,0.29214587807655334,-0.050609517842531204,0.15130257606506348,-2.3283064365386963e-09,625.2057495117188,-1785.669189453125,-16184.1298828125,-409.9522705078125,976.0684204101562,29.69105339050293,44.905433654785156,-0.08224418014287949,2.109915018081665
1731876722791.0,0.0,0.0,-20.0,0.0,0.0,0.0,0.0,0.0,0.0,0.0,0.0,0.0,0.0,0.0,0.0,6.24029541015625,2.703155517578125,0.3110976815223694,-0.05329513177275658,0.14985090494155884,-4.656612873077393e-10,615.6367797851562,-1643.7213134765625,-16371.251953125,-437.21038818359375,1273.272705078125,-49.538761138916016,44.441165924072266,0.03453982248902321,2.153125047683716
1731876722807.0,0.0,0.0,-20.0,0.0,0.0,0.0,0.0,0.0,0.0,0.0,0.0,0.0,0.0,0.0,0.0,6.18011474609375,2.873870849609375,0.3296954035758972,-0.05575788393616676,0.1558040827512741,-2.3283064365386963e-10,834.6554565429688,-1635.407958984375,-16185.2314453125,-514.2847290039062,1158.2615966796875,21.496023178100586,45.4420280456543,-0.346258282661438,2.484354257583618
1731876722840.0,0.0,0.0,-20.0,0.0,0.0,0.0,0.0,0.0,0.0,0.0,0.0,0.0,0.0,0.0,0.0,6.117218017578125,3.051361083984375,0.3488439619541168,-0.06082621589303017,0.1598583459854126,-2.3283064365386963e-10,1082.5625,-1698.8748779296875,-16279.65625,-381.7954406738281,1014.151123046875,248.4571533203125,45.01152801513672,-0.07198675721883774,1.6521027088165283
1731876722874.0,0.0,0.0,-20.0,0.0,0.0,0.0,0.0,0.0,0.0,0.0,0.0,0.0,0.0,0.0,0.0,5.977081298828125,3.413726806640625,0.3872986137866974,-0.06593792885541916,0.1563279926776886,-4.656612873077393e-10,1077.7552490234375,-1745.17041015625,-16263.11328125,-345.7746276855469,1102.934326171875,-44.21450424194336,44.33208465576172,0.2598626911640167,2.830947160720825
1731876722890.0,0.0,0.0,-20.0,0.0,0.0,0.0,0.0,0.0,0.0,0.0,0.0,0.0,0.0,0.0,0.0,5.90264892578125,3.5919189453125,0.4058714210987091,-0.06834766268730164,0.15458250045776367,1.3969838619232178e-09,990.4925537109375,-1634.241455078125,-16223.5498046875,-514.6926879882812,1247.1337890625,-40.4990119934082,45.23405838012695,-0.11531732976436615,2.593583345413208
1731876722890.0,0.0,0.0,-20.0,0.0,0.0,0.0,0.0,0.0,0.0,0.0,0.0,0.0,0.0,0.0,0.0,5.90264892578125,3.5919189453125,0.4058714210987091,-0.06834766268730164,0.15458250045776367,1.3969838619232178e-09,990.4925537109375,-1634.241455078125,-16223.5498046875,-514.6926879882812,1247.1337890625,-40.4990119934082,45.23405838012695,-0.11531732976436615,2.593583345413208
1731876722940.0,0.0,0.0,-20.0,0.0,0.0,0.0,0.0,0.0,0.0,0.0,0.0,0.0,0.0,0.0,0.0,5.745574951171875,3.942291259765625,0.4416939616203308,-0.07573427259922028,0.14889280498027802,4.656612873077393e-10,1088.55859375,-1668.157958984375,-16539.90234375,-358.6567077636719,1238.4893798828125,25.578645706176758,45.2794075012207,-0.02905898168683052,3.8047850131988525
1731876722957.0,0.0,0.0,-20.0,0.0,0.0,0.0,0.0,0.0,0.0,0.0,0.0,0.0,0.0,0.0,0.0,5.660003662109375,4.112060546875,0.45868995785713196,-0.0781550332903862,0.14691224694252014,-4.656612873077393e-10,1294.8106689453125,-1647.421142578125,-16355.583984375,-461.3020935058594,1243.675048828125,84.06737518310547,44.726375579833984,-0.17649538815021515,3.7698850631713867
1731876722974.0,0.0,0.0,-20.0,0.0,0.0,0.0,0.0,0.0,0.0,0.0,0.0,0.0,0.0,0.0,0.0,5.5716552734375,4.27960205078125,0.47520849108695984,-0.08056264370679855,0.1448831409215927,-4.656612873077393e-10,1187.2694091796875,-1483.5020751953125,-16234.021484375,-593.8892822265625,1165.5692138671875,14.715975761413574,44.44789123535156,0.15425466001033783,3.4862735271453857
1731876722991.0,0.0,0.0,-20.0,0.0,0.0,0.0,0.0,0.0,0.0,0.0,0.0,0.0,0.0,0.0,0.0,5.480560302734375,4.444854736328125,0.4912428557872772,-0.08296482264995575,0.1427980363368988,-9.313225746154785e-10,1256.1016845703125,-1518.0401611328125,-16263.724609375,-577.71337890625,1078.5128173828125,95.94393157958984,44.567543029785156,-0.022190211340785027,3.6567704677581787
1731876723007.0,0.0,0.0,-20.0,0.0,0.0,0.0,0.0,0.0,0.0,0.0,0.0,0.0,0.0,0.0,0.0,5.386688232421875,4.607757568359375,0.5067862868309021,-0.08524075150489807,0.1407650113105774,1.862645149230957e-09,1351.0452880859375,-1431.8612060546875,-16227.353515625,-637.2781982421875,935.9772338867188,-29.497516632080078,44.91179275512695,-0.17187395691871643,3.117985486984253
1731876723040.0,0.0,0.0,-20.0,0.0,0.0,0.0,0.0,0.0,0.0,0.0,0.0,0.0,0.0,0.0,0.0,5.290252685546875,4.76837158203125,0.5218443274497986,-0.08988416194915771,0.13643670082092285,-2.3283064365386963e-09,1464.6644287109375,-1575.6239013671875,-16199.08984375,-708.83837890625,995.9583740234375,-103.20861053466797,45.03676223754883,-0.040126390755176544,3.5787320137023926
1731876723074.0,0.0,0.0,-20.0,0.0,0.0,0.0,0.0,0.0,0.0,0.0,0.0,0.0,0.0,0.0,0.0,5.084014892578125,5.07720947265625,0.5499900579452515,-0.09440211206674576,0.13198009133338928,-9.313225746154785e-10,1369.7894287109375,-1436.5989990234375,-16284.91015625,-692.3062133789062,1177.559814453125,26.911819458007812,44.89161682128906,0.08606767654418945,4.050361633300781
1731876723091.0,0.0,0.0,-20.0,0.0,0.0,0.0,0.0,0.0,0.0,0.0,0.0,0.0,0.0,0.0,0.0,4.977020263671875,5.22784423828125,0.5633053779602051,-0.09669482707977295,0.12962062656879425,-2.7939677238464355e-09,1463.3121337890625,-1556.689453125,-16292.537109375,-608.9544677734375,1032.442138671875,18.906299591064453,44.92255783081055,-0.14820727705955505,4.063179016113281
1731876723107.0,0.0,0.0,-20.0,0.0,0.0,0.0,0.0,0.0,0.0,0.0,0.0,0.0,0.0,0.0,0.0,4.867401123046875,5.3758544921875,0.5761048197746277,-0.09878329932689667,0.12741117179393768,-1.862645149230957e-09,1463.7064208984375,-1316.1400146484375,-16187.8779296875,-945.3662109375,778.5062866210938,-32.38441848754883,45.00773239135742,-0.21833756566047668,4.325320720672607
1731876723140.0,0.0,0.0,-20.0,0.0,0.0,0.0,0.0,0.0,0.0,0.0,0.0,0.0,0.0,0.0,0.0,4.75537109375,5.521331787109375,0.5884063839912415,-0.1031264141201973,0.1226234957575798,9.313225746154785e-10,1456.2838134765625,-1513.1708984375,-16272.2548828125,-734.4465942382812,803.8639526367188,-86.0186538696289,45.279762268066406,0.30073440074920654,3.990635395050049
1731876723157.0,0.0,0.0,-20.0,0.0,0.0,0.0,0.0,0.0,0.0,0.0,0.0,0.0,0.0,0.0,0.0,4.638336181640625,5.661376953125,0.5999675393104553,-0.1052890494465828,0.12013708055019379,-9.313225746154785e-10,1531.314208984375,-1373.793212890625,-16215.556640625,-837.2344970703125,924.2993774414062,-157.3321075439453,44.6109619140625,-0.37719279527664185,4.405696392059326
1731876723190.0,0.0,0.0,-20.0,0.0,0.0,0.0,0.0,0.0,0.0,0.0,0.0,0.0,0.0,0.0,0.0,4.39691162109375,5.93316650390625,0.6215574741363525,-0.10935009270906448,0.1152709349989891,0.0,1778.5953369140625,-1201.294921875,-16279.9384765625,-745.052978515625,786.8782958984375,-126.21481323242188,45.18958282470703,0.009873896837234497,4.369386672973633
1731876723190.0,0.0,0.0,-20.0,0.0,0.0,0.0,0.0,0.0,0.0,0.0,0.0,0.0,0.0,0.0,0.0,4.39691162109375,5.93316650390625,0.6215574741363525,-0.10935009270906448,0.1152709349989891,0.0,1778.5953369140625,-1201.294921875,-16279.9384765625,-745.052978515625,786.8782958984375,-126.21481323242188,45.18958282470703,0.009873896837234497,4.369386672973633
1731876723240.0,0.0,0.0,-20.0,0.0,0.0,0.0,0.0,0.0,0.0,0.0,0.0,0.0,0.0,0.0,0.0,4.145965576171875,6.193603515625,0.6411256790161133,-0.11534460633993149,0.10757466405630112,9.313225746154785e-10,1710.59130859375,-1409.13623046875,-16266.2421875,-955.3143310546875,833.5199584960938,-77.9170150756836,44.750701904296875,-0.3324815630912781,4.527371406555176
1731876723258.0,0.0,0.0,-20.0,0.0,0.0,0.0,0.0,0.0,0.0,0.0,0.0,0.0,0.0,0.0,0.0,4.014739990234375,6.316558837890625,0.6499496698379517,-0.11731845140457153,0.10489340126514435,-9.313225746154785e-10,1824.0186767578125,-1051.684814453125,-16091.7958984375,-757.15576171875,848.961669921875,-54.24591827392578,45.02834701538086,-0.37208235263824463,4.980476379394531
1731876723291.0,0.0,0.0,-20.0,0.0,0.0,0.0,0.0,0.0,0.0,0.0,0.0,0.0,0.0,0.0,0.0,3.745574951171875,6.553436279296875,0.666123628616333,-0.12107512354850769,0.09956767410039902,1.862645149230957e-09,1962.8514404296875,-1274.7276611328125,-16166.880859375,-908.539306640625,768.4605102539062,87.72004699707031,45.37360763549805,-0.6992191672325134,4.96570348739624
1731876723291.0,0.0,0.0,-20.0,0.0,0.0,0.0,0.0,0.0,0.0,0.0,0.0,0.0,0.0,0.0,0.0,3.745574951171875,6.553436279296875,0.666123628616333,-0.12107512354850769,0.09956767410039902,1.862645149230957e-09,1962.8514404296875,-1274.7276611328125,-16166.880859375,-908.539306640625,768.4605102539062,87.72004699707031,45.37360763549805,-0.6992191672325134,4.96570348739624
1731876723307.0,0.0,0.0,-20.0,0.0,0.0,0.0,0.0,0.0,0.0,0.0,0.0,0.0,0.0,0.0,0.0,3.607666015625,6.66729736328125,0.6734889149665833,-0.1228468120098114,0.09694730490446091,-9.313225746154785e-10,1768.8343505859375,-986.1213989257812,-16183.716796875,-795.8231201171875,672.6656494140625,-57.055015563964844,45.16674041748047,0.17527028918266296,4.868782043457031
1731876723358.0,0.0,0.0,-20.0,0.0,0.0,0.0,0.0,0.0,0.0,0.0,0.0,0.0,0.0,0.0,0.0,3.32354736328125,6.882720947265625,0.6866385340690613,-0.12819206714630127,0.08856894820928574,9.313225746154785e-10,2060.493408203125,-908.0956420898438,-16315.9267578125,-1058.254150390625,645.4575805664062,-74.8731460571289,45.056514739990234,-0.6792083978652954,5.631562232971191
1731876723374.0,0.0,0.0,-20.0,0.0,0.0,0.0,0.0,0.0,0.0,0.0,0.0,0.0,0.0,0.0,0.0,3.177337646484375,6.984039306640625,0.6924355626106262,-0.1298401653766632,0.08582757413387299,0.0,2010.257080078125,-950.491943359375,-16360.89453125,-1012.8622436523438,618.9967041015625,64.89308166503906,44.86463928222656,-0.6258454918861389,5.720623016357422
1731876723391.0,0.0,0.0,-20.0,0.0,0.0,0.0,0.0,0.0,0.0,0.0,0.0,0.0,0.0,0.0,0.0,3.02923583984375,7.082275390625,0.6978002786636353,-0.13147170841693878,0.08303222060203552,1.862645149230957e-09,1965.0374755859375,-916.5288696289062,-16157.3623046875,-980.6101684570312,688.8455810546875,-39.42461013793945,45.35945129394531,-0.4479357600212097,5.146957874298096
1731876723408.0,0.0,0.0,-20.0,0.0,0.0,0.0,0.0,0.0,0.0,0.0,0.0,0.0,0.0,0.0,0.0,2.879180908203125,7.177276611328125,0.7027422785758972,-0.1331201046705246,0.0801200270652771,-1.862645149230957e-09,2082.4091796875,-848.4368286132812,-16079.3583984375,-1194.9364013671875,641.5374145507812,22.92180633544922,44.289546966552734,-0.1579367071390152,5.454410552978516
1731876723457.0,0.0,0.0,-20.0,0.0,0.0,0.0,0.0,0.0,0.0,0.0,0.0,0.0,0.0,0.0,0.0,2.57159423828125,7.354095458984375,0.7112389206886292,-0.13769084215164185,0.0715259462594986,0.0,2084.63623046875,-651.6458129882812,-16381.7822265625,-1134.53466796875,647.0372924804688,-45.66752243041992,44.407039642333984,-0.5120980143547058,5.632151126861572
1731876723474.0,0.0,0.0,-20.0,0.0,0.0,0.0,0.0,0.0,0.0,0.0,0.0,0.0,0.0,0.0,0.0,2.414276123046875,7.43597412109375,0.7148339748382568,-0.13920168578624725,0.0684954822063446,1.862645149230957e-09,2186.5927734375,-823.5208129882812,-16192.95703125,-923.306884765625,431.5267028808594,54.7608642578125,44.383392333984375,-0.04518350958824158,6.00953483581543
1731876723491.0,0.0,0.0,-20.0,0.0,0.0,0.0,0.0,0.0,0.0,0.0,0.0,0.0,0.0,0.0,0.0,2.25518798828125,7.514404296875,0.7180588841438293,-0.1405993103981018,0.06559665501117706,-0.04043097794055939,2123.408447265625,-739.0299072265625,-16067.1669921875,-999.7901000976562,392.5372314453125,-353.63458251953125,44.41730880737305,-0.28974390029907227,6.023383140563965
1731876723508.0,0.0,0.0,-20.0,0.0,0.0,0.0,0.0,0.0,0.0,0.0,0.0,0.0,0.0,0.0,0.0,2.08831787109375,7.591278076171875,0.6742299795150757,-0.1420043408870697,0.06258203834295273,-0.04041401296854019,2086.344482421875,-741.4434204101562,-16188.9853515625,-980.0177001953125,336.2077331542969,-318.7706298828125,44.92684555053711,0.23646527528762817,6.217517852783203
1731876723541.0,0.0,0.0,-20.0,0.0,0.0,0.0,0.0,0.0,0.0,0.0,0.0,0.0,0.0,0.0,0.0,1.919708251953125,7.66455078125,0.6300641894340515,-0.14466871321201324,0.05655520036816597,-0.014857012778520584,2030.17578125,-490.4942626953125,-16161.5068359375,-1158.1773681640625,401.68048095703125,-93.22531127929688,44.55000686645508,-0.41797101497650146,5.9719085693359375
1731876723576.0,0.0,0.0,-20.0,0.0,0.0,0.0,0.0,0.0,0.0,0.0,0.0,0.0,0.0,0.0,0.0,1.585235595703125,7.791015625,0.6192540526390076,-0.1472366750240326,0.050297632813453674,0.010601602494716644,2096.95361328125,-495.70611572265625,-16224.15625,-1031.7337646484375,326.5365295410156,77.54998016357422,44.822593688964844,-0.5591782331466675,5.916714668273926
1731876723592.0,0.0,0.0,-20.0,0.0,0.0,0.0,0.0,0.0,0.0,0.0,0.0,0.0,0.0,0.0,0.0,1.418365478515625,7.84832763671875,0.6330372095108032,-0.14837045967578888,0.04737002030014992,0.027497295290231705,2225.98583984375,-627.568115234375,-16322.2373046875,-987.0745239257812,251.98153686523438,282.2801818847656,44.28242111206055,-0.46392685174942017,6.295197010040283
1731876723608.0,0.0,0.0,-20.0,0.0,0.0,0.0,0.0,0.0,0.0,0.0,0.0,0.0,0.0,0.0,0.0,1.252899169921875,7.90185546875,0.6661154627799988,-0.1495155692100525,0.044295381754636765,0.03587820380926132,2382.833740234375,-189.55384826660156,-16227.734375,-1345.8231201171875,400.69744873046875,278.9234619140625,44.535240173339844,0.12617036700248718,6.2867021560668945
1731876723625.0,0.0,0.0,-20.0,0.0,0.0,0.0,0.0,0.0,0.0,0.0,0.0,0.0,0.0,0.0,0.0,1.087432861328125,7.951751708984375,0.7086634039878845,-0.15062673389911652,0.04118577018380165,0.04421059042215347,2248.136962890625,-147.36666870117188,-16211.498046875,-1188.5318603515625,305.1614074707031,194.60858154296875,44.8978271484375,0.16431096196174622,6.072420120239258
1731876723658.0,0.0,0.0,-20.0,0.0,0.0,0.0,0.0,0.0,0.0,0.0,0.0,0.0,0.0,0.0,0.0,0.922027587890625,7.998046875,0.7606474161148071,-0.15265138447284698,0.035148315131664276,0.06908714026212692,2167.033203125,-227.18594360351562,-16383.9052734375,-1106.87646484375,247.91795349121094,459.9697265625,45.087684631347656,-0.40692126750946045,6.3001227378845215
1731876723691.0,0.0,0.0,-20.0,0.0,0.0,0.0,0.0,0.0,0.0,0.0,0.0,0.0,0.0,0.0,0.0,0.593505859375,8.072845458984375,0.9213075637817383,-0.1545678824186325,0.028890816494822502,0.07693558186292648,2348.78271484375,-373.4462585449219,-16277.283203125,-1093.368408203125,269.6813049316406,609.1498413085938,44.78413391113281,-0.5296757221221924,6.479976654052734
1731876723691.0,0.0,0.0,-20.0,0.0,0.0,0.0,0.0,0.0,0.0,0.0,0.0,0.0,0.0,0.0,0.0,0.593505859375,8.072845458984375,0.9213075637817383,-0.1545678824186325,0.028890816494822502,0.07693558186292648,2348.78271484375,-373.4462585449219,-16277.283203125,-1093.368408203125,269.6813049316406,609.1498413085938,44.78413391113281,-0.5296757221221924,6.479976654052734
1731876723742.0,0.0,0.0,-20.0,0.0,0.0,0.0,0.0,0.0,0.0,0.0,0.0,0.0,0.0,0.0,0.0,0.263336181640625,8.134033203125,1.0995301008224487,-0.15713520348072052,0.019371170550584793,0.08419115841388702,2351.0693359375,-7.8675079345703125,-16304.4453125,-1195.316650390625,36.71167755126953,583.989013671875,44.002784729003906,-0.7405069470405579,5.792379856109619
1731876723758.0,0.0,0.0,-20.0,0.0,0.0,0.0,0.0,0.0,0.0,0.0,0.0,0.0,0.0,0.0,0.0,0.097076416015625,8.15594482421875,1.1970593929290771,-0.15786486864089966,0.016343170776963234,0.0919855386018753,2283.539306640625,40.93692398071289,-16133.162109375,-1054.4471435546875,212.00135803222656,771.8758544921875,44.66017532348633,-1.0133723020553589,6.451052188873291
1731876723775.0,0.0,0.0,-20.0,0.0,0.0,0.0,0.0,0.0,0.0,0.0,0.0,0.0,0.0,0.0,0.0,-0.06869521737098694,8.174652099609375,1.3035509586334229,-0.15860962867736816,0.013057145290076733,0.09150544553995132,2316.341064453125,-93.8287353515625,-16549.4375,-1414.2265625,117.9773941040039,812.5850219726562,44.474666595458984,-0.8340737819671631,6.60296630859375
1731876723808.0,0.0,0.0,-20.0,0.0,0.0,0.0,0.0,0.0,0.0,0.0,0.0,0.0,0.0,0.0,0.0,-0.4015209972858429,8.20196533203125,1.5241432189941406,-0.1598978340625763,0.006774747744202614,0.09855659306049347,2363.790771484375,-114.08795166015625,-16322.1142578125,-1299.32177734375,-14.454324722290039,849.818115234375,44.676029205322266,-1.7566955089569092,6.530681610107422
1731876723808.0,0.0,0.0,-20.0,0.0,0.0,0.0,0.0,0.0,0.0,0.0,0.0,0.0,0.0,0.0,0.0,-0.4015209972858429,8.20196533203125,1.5241432189941406,-0.1598978340625763,0.006774747744202614,0.09855659306049347,2363.790771484375,-114.08795166015625,-16322.1142578125,-1299.32177734375,-14.454324722290039,849.818115234375,44.676029205322266,-1.7566955089569092,6.530681610107422
1731876723858.0,0.0,0.0,-20.0,0.0,0.0,0.0,0.0,0.0,0.0,0.0,0.0,0.0,0.0,0.0,0.0,-0.7348394393920898,8.216278076171875,1.7608219385147095,-0.16149580478668213,-0.0026375590823590755,0.12042400240898132,2306.37158203125,317.2218017578125,-16290.8779296875,-1250.01513671875,-118.9264907836914,797.1259765625,44.30328369140625,-0.9863084554672241,5.5928263664245605
1731876723875.0,0.0,0.0,-20.0,0.0,0.0,0.0,0.0,0.0,0.0,0.0,0.0,0.0,0.0,0.0,0.0,-0.8999715447425842,8.2152099609375,1.9002782106399536,-0.1619442105293274,-0.005805519409477711,0.11959394812583923,2285.354248046875,65.54849243164062,-16060.46484375,-1123.9141845703125,-163.28677368164062,1041.087890625,44.946929931640625,-1.546754240989685,6.674107074737549
1731876723908.0,0.0,0.0,-20.0,0.0,0.0,0.0,0.0,0.0,0.0,0.0,0.0,0.0,0.0,0.0,0.0,-1.232154369354248,8.203277587890625,2.176457405090332,-0.16270503401756287,-0.012135688215494156,0.12555991113185883,2378.37939453125,286.7664489746094,-16284.1748046875,-1314.563720703125,-82.54154205322266,968.03466796875,44.70808410644531,-1.5892236232757568,6.801225662231445
1731876723908.0,0.0,0.0,-20.0,0.0,0.0,0.0,0.0,0.0,0.0,0.0,0.0,0.0,0.0,0.0,0.0,-1.232154369354248,8.203277587890625,2.176457405090332,-0.16270503401756287,-0.012135688215494156,0.12555991113185883,2378.37939453125,286.7664489746094,-16284.1748046875,-1314.563720703125,-82.54154205322266,968.03466796875,44.70808410644531,-1.5892236232757568,6.801225662231445
1731876723958.0,0.0,0.0,-20.0,0.0,0.0,0.0,0.0,0.0,0.0,0.0,0.0,0.0,0.0,0.0,0.0,-1.5640350580215454,8.17889404296875,2.466752052307129,-0.16349969804286957,-0.021522844210267067,0.13758836686611176,2291.885986328125,371.93505859375,-16098.9267578125,-1218.0059814453125,-72.75904083251953,1148.2977294921875,44.37710189819336,-1.9615942239761353,6.347606182098389
1731876723975.0,0.0,0.0,-20.0,0.0,0.0,0.0,0.0,0.0,0.0,0.0,0.0,0.0,0.0,0.0,0.0,-1.7286673784255981,8.158782958984375,2.626682758331299,-0.16367778182029724,-0.024702362716197968,0.13634677231311798,2413.52001953125,406.9268493652344,-16186.8955078125,-1283.5594482421875,-239.27247619628906,1050.6395263671875,44.59283447265625,-1.835868000984192,6.114205360412598
1731876723991.0,0.0,0.0,-20.0,0.0,0.0,0.0,0.0,0.0,0.0,0.0,0.0,0.0,0.0,0.0,0.0,-1.893743872642517,8.13543701171875,2.7853424549102783,-0.1638055145740509,-0.02777186594903469,0.14251098036766052,2414.63232421875,537.60009765625,-16270.7509765625,-1253.8704833984375,-267.0101623535156,791.59716796875,44.66611099243164,-2.2748937606811523,6.019414901733398
1731876724008.0,0.0,0.0,-20.0,0.0,0.0,0.0,0.0,0.0,0.0,0.0,0.0,0.0,0.0,0.0,0.0,-2.058001756668091,8.1092529296875,2.9513132572174072,-0.16388969123363495,-0.03084534965455532,0.14116159081459045,2186.58056640625,585.2721557617188,-16057.3779296875,-1183.0626220703125,-309.6852722167969,1089.953369140625,44.86664581298828,-2.584320306777954,6.357223987579346
1731876724041.0,0.0,0.0,-20.0,0.0,0.0,0.0,0.0,0.0,0.0,0.0,0.0,0.0,0.0,0.0,0.0,-2.222627639770508,8.0799560546875,3.115919351577759,-0.16392484307289124,-0.037034593522548676,0.13831670582294464,2152.09130859375,700.9033203125,-16383.4326171875,-1312.255126953125,-345.1352233886719,1118.56494140625,44.695804595947266,-2.511873483657837,5.88422966003418
1731876724075.0,0.0,0.0,-20.0,0.0,0.0,0.0,0.0,0.0,0.0,0.0,0.0,0.0,0.0,0.0,0.0,-2.5532236099243164,8.00469970703125,3.4377682209014893,-0.1637767106294632,-0.04325058311223984,0.13528548181056976,2175.634033203125,889.3410034179688,-16238.8349609375,-1113.983154296875,-374.35943603515625,1060.49853515625,44.99803161621094,-3.137974739074707,6.0438408851623535
1731876724091.0,0.0,0.0,-20.0,0.0,0.0,0.0,0.0,0.0,0.0,0.0,0.0,0.0,0.0,0.0,0.0,-2.7188591957092285,7.962310791015625,3.596447229385376,-0.16363278031349182,-0.04635193571448326,0.1337066888809204,2244.720947265625,766.9754028320312,-16144.37890625,-1187.6280517578125,-534.8157958984375,1133.1295166015625,44.266815185546875,-3.0246360301971436,5.994304656982422
1731876724108.0,0.0,0.0,-20.0,0.0,0.0,0.0,0.0,0.0,0.0,0.0,0.0,0.0,0.0,0.0,0.0,-2.8846640586853027,7.916748046875,3.7535829544067383,-0.16344475746154785,-0.049406662583351135,0.13210774958133698,2223.2822265625,650.2498779296875,-16360.1513671875,-1164.1307373046875,-420.791259765625,1114.6141357421875,44.60576629638672,-3.4085657596588135,5.770786285400391
1731876724141.0,0.0,0.0,-20.0,0.0,0.0,0.0,0.0,0.0,0.0,0.0,0.0,0.0,0.0,0.0,0.0,-3.0505940914154053,7.8680419921875,3.9091696739196777,-0.1629359871149063,-0.05544092506170273,0.1288188248872757,2172.02734375,766.554931640625,-16126.787109375,-1528.8021240234375,-302.7430114746094,1097.1243896484375,45.083465576171875,-3.071129083633423,6.35041618347168
1731876724158.0,0.0,0.0,-20.0,0.0,0.0,0.0,0.0,0.0,0.0,0.0,0.0,0.0,0.0,0.0,0.0,-3.2165307998657227,7.81268310546875,4.061460494995117,-0.16261886060237885,-0.05839713662862778,0.12714320421218872,1988.06005859375,1002.1075439453125,-16317.8759765625,-1106.0751953125,-507.19940185546875,953.1748657226562,44.69253158569336,-3.326815605163574,6.040921211242676
1731876724191.0,0.0,0.0,-20.0,0.0,0.0,0.0,0.0,0.0,0.0,0.0,0.0,0.0,0.0,0.0,0.0,-3.5483644008636475,7.69268798828125,4.361176013946533,-0.16183507442474365,-0.06439241766929626,0.12361147999763489,2214.99267578125,1227.5302734375,-16168.458984375,-1105.30859375,-407.7836608886719,769.920654296875,44.0880012512207,-3.5709228515625,5.7201080322265625
1731876724191.0,0.0,0.0,-20.0,0.0,0.0,0.0,0.0,0.0,0.0,0.0,0.0,0.0,0.0,0.0,0.0,-3.5483644008636475,7.69268798828125,4.361176013946533,-0.16183507442474365,-0.06439241766929626,0.12361147999763489,2214.99267578125,1227.5302734375,-16168.458984375,-1105.30859375,-407.7836608886719,769.920654296875,44.0880012512207,-3.5709228515625,5.7201080322265625
1731876724208.0,0.0,0.0,-20.0,0.0,0.0,0.0,0.0,0.0,0.0,0.0,0.0,0.0,0.0,0.0,0.0,-3.7141716480255127,7.628021240234375,4.508527755737305,-0.16137701272964478,-0.06735267490148544,0.12180021405220032,2137.93115234375,1100.303466796875,-16133.1650390625,-988.9203491210938,-514.8200073242188,891.9030151367188,44.597774505615234,-4.108804225921631,5.096743583679199
1731876724258.0,0.0,0.0,-20.0,0.0,0.0,0.0,0.0,0.0,0.0,0.0,0.0,0.0,0.0,0.0,0.0,-4.044969081878662,7.48583984375,4.796149730682373,-0.15973003208637238,-0.07613909989595413,0.11615148186683655,1988.6807861328125,1148.0635986328125,-16103.0322265625,-1213.5518798828125,-655.6698608398438,868.0404052734375,44.995361328125,-4.147665023803711,5.4881110191345215
1731876724275.0,0.0,0.0,-20.0,0.0,0.0,0.0,0.0,0.0,0.0,0.0,0.0,0.0,0.0,0.0,0.0,-4.209832668304443,7.40838623046875,4.936366558074951,-0.15908844769001007,-0.07904050499200821,0.11419348418712616,2124.572998046875,1218.783447265625,-16159.6962890625,-1062.108154296875,-656.681640625,953.23681640625,43.91986846923828,-4.409167766571045,5.615551471710205
1731876724308.0,0.0,0.0,-20.0,0.0,0.0,0.0,0.0,0.0,0.0,0.0,0.0,0.0,0.0,0.0,0.0,-4.53857421875,7.244232177734375,5.21134614944458,-0.1576683521270752,-0.08478610962629318,0.11017411202192307,1957.3515625,1520.9825439453125,-16296.4462890625,-1021.9429321289062,-621.702392578125,892.8363037109375,44.70139694213867,-4.263153553009033,5.318041801452637
1731876724308.0,0.0,0.0,-20.0,0.0,0.0,0.0,0.0,0.0,0.0,0.0,0.0,0.0,0.0,0.0,0.0,-4.53857421875,7.244232177734375,5.21134614944458,-0.1576683521270752,-0.08478610962629318,0.11017411202192307,1957.3515625,1520.9825439453125,-16296.4462890625,-1021.9429321289062,-621.702392578125,892.8363037109375,44.70139694213867,-4.263153553009033,5.318041801452637
1731876724325.0,0.0,0.0,-20.0,0.0,0.0,0.0,0.0,0.0,0.0,0.0,0.0,0.0,0.0,0.0,0.0,-4.702361106872559,7.157562255859375,5.346075057983398,-0.15689857304096222,-0.08759771287441254,0.10813620686531067,2082.710693359375,1298.72900390625,-16296.166015625,-1165.21728515625,-806.8564453125,637.9530029296875,44.73142623901367,-4.956940174102783,5.1412153244018555
1731876724375.0,0.0,0.0,-20.0,0.0,0.0,0.0,0.0,0.0,0.0,0.0,0.0,0.0,0.0,0.0,0.0,-5.027837753295898,6.971832275390625,5.607844352722168,-0.15433889627456665,-0.09585357457399368,0.10186821222305298,2188.755859375,1463.45947265625,-16267.45703125,-960.9376831054688,-706.0861206054688,672.4413452148438,44.65594482421875,-5.210122585296631,5.037900447845459
1731876724391.0,0.0,0.0,-20.0,0.0,0.0,0.0,0.0,0.0,0.0,0.0,0.0,0.0,0.0,0.0,0.0,-5.189393520355225,6.872833251953125,5.734819412231445,-0.1533932387828827,-0.09857343137264252,0.09970606863498688,1719.4989013671875,1499.2425537109375,-16203.51171875,-1208.216064453125,-854.0368041992188,617.2071533203125,44.41834259033203,-5.157488822937012,5.190202236175537
1731876724408.0,0.0,0.0,-20.0,0.0,0.0,0.0,0.0,0.0,0.0,0.0,0.0,0.0,0.0,0.0,0.0,-5.35031795501709,6.770843505859375,5.859850883483887,-0.15240463614463806,-0.10126575827598572,0.09751604497432709,1923.939453125,1501.542724609375,-16241.5634765625,-1203.5831298828125,-657.6140747070312,601.6314697265625,44.92105484008789,-5.397263050079346,5.011605739593506
1731876724425.0,0.0,0.0,-20.0,0.0,0.0,0.0,0.0,0.0,0.0,0.0,0.0,0.0,0.0,0.0,0.0,-5.510563373565674,6.6658935546875,5.982922077178955,-0.15134653449058533,-0.10399742424488068,0.09524174779653549,1896.3604736328125,1664.265625,-16201.857421875,-986.1912841796875,-776.3124389648438,733.6517944335938,44.82533264160156,-5.0560102462768555,5.128945350646973
1731876724475.0,0.0,0.0,-20.0,0.0,0.0,0.0,0.0,0.0,0.0,0.0,0.0,0.0,0.0,0.0,0.0,-5.827775955200195,6.44384765625,6.22072172164917,-0.14802272617816925,-0.11175373196601868,0.08848101645708084,1826.3648681640625,1661.6153564453125,-16420.201171875,-906.97998046875,-900.9932861328125,645.9912109375,44.125789642333984,-5.1641926765441895,4.899696350097656
1731876724492.0,0.0,0.0,-20.0,0.0,0.0,0.0,0.0,0.0,0.0,0.0,0.0,0.0,0.0,0.0,0.0,-5.9846367835998535,6.326904296875,6.335464000701904,-0.1468372344970703,-0.11426924169063568,0.08618634939193726,1615.0804443359375,1511.27294921875,-16151.0107421875,-1098.3961181640625,-828.40234375,679.516845703125,44.91754150390625,-5.450403690338135,4.973029613494873
1731876724509.0,0.0,0.0,-20.0,0.0,0.0,0.0,0.0,0.0,0.0,0.0,0.0,0.0,0.0,0.0,0.0,-6.140596389770508,6.207122802734375,6.448177814483643,-0.14557017385959625,-0.11683549731969833,0.08379072695970535,1769.6656494140625,1746.173095703125,-16124.7548828125,-1048.5714111328125,-870.5856323242188,706.6978759765625,44.677852630615234,-5.722102165222168,4.487013339996338
1731876724525.0,0.0,0.0,-20.0,0.0,0.0,0.0,0.0,0.0,0.0,0.0,0.0,0.0,0.0,0.0,0.0,-6.295567512512207,6.08441162109375,6.558765888214111,-0.14429384469985962,-0.11930475383996964,0.08143138885498047,1846.08984375,1913.155029296875,-16121.0810546875,-1005.0006103515625,-895.5363159179688,689.3318481445312,44.342002868652344,-5.531505107879639,4.0799241065979
1731876724559.0,0.0,0.0,-20.0,0.0,0.0,0.0,0.0,0.0,0.0,0.0,0.0,0.0,0.0,0.0,0.0,-6.449533462524414,5.95892333984375,6.667276382446289,-0.14162138104438782,-0.12414316833019257,0.0766456201672554,1700.499755859375,1943.81201171875,-16225.5673828125,-1075.5792236328125,-948.0833129882812,629.1758422851562,44.53702926635742,-5.839868545532227,4.325110912322998
1731876724592.0,0.0,0.0,-20.0,0.0,0.0,0.0,0.0,0.0,0.0,0.0,0.0,0.0,0.0,0.0,0.0,-6.75162935256958,5.693511962890625,6.873131275177002,-0.13880231976509094,-0.1288267821073532,0.07179269194602966,1565.8023681640625,1923.1212158203125,-16252.4716796875,-878.3875732421875,-911.2581787109375,470.1590270996094,44.063377380371094,-5.89730978012085,3.4713497161865234
1731876724609.0,0.0,0.0,-20.0,0.0,0.0,0.0,0.0,0.0,0.0,0.0,0.0,0.0,0.0,0.0,0.0,-6.900911808013916,5.55670166015625,6.972843647003174,-0.1373242735862732,-0.1311323642730713,0.06931809335947037,1636.77490234375,2017.846435546875,-16243.40625,-1148.62451171875,-823.107421875,558.9511108398438,44.29348373413086,-5.893350124359131,3.549502372741699
1731876724609.0,0.0,0.0,-20.0,0.0,0.0,0.0,0.0,0.0,0.0,0.0,0.0,0.0,0.0,0.0,0.0,-6.900911808013916,5.55670166015625,6.972843647003174,-0.1373242735862732,-0.1311323642730713,0.06931809335947037,1636.77490234375,2017.846435546875,-16243.40625,-1148.62451171875,-823.107421875,558.9511108398438,44.29348373413086,-5.893350124359131,3.549502372741699
1731876724659.0,0.0,0.0,-20.0,0.0,0.0,0.0,0.0,0.0,0.0,0.0,0.0,0.0,0.0,0.0,0.0,-7.195725440979004,5.27508544921875,7.165800094604492,-0.13266141712665558,-0.13782648742198944,0.061780765652656555,1329.055419921875,1972.5455322265625,-16079.267578125,-997.918212890625,-1114.27587890625,425.27691650390625,44.7549934387207,-6.1451334953308105,3.551997423171997
1731876724675.0,0.0,0.0,-20.0,0.0,0.0,0.0,0.0,0.0,0.0,0.0,0.0,0.0,0.0,0.0,0.0,-7.339534282684326,5.127349853515625,7.2563796043396,-0.131032332777977,-0.13998159766197205,0.05923281982541084,1498.1387939453125,2115.798828125,-16134.998046875,-1034.9403076171875,-1004.1016845703125,377.287841796875,44.76389694213867,-5.875924110412598,2.987025499343872
1731876724709.0,0.0,0.0,-20.0,0.0,0.0,0.0,0.0,0.0,0.0,0.0,0.0,0.0,0.0,0.0,0.0,-7.622821807861328,4.82421875,7.430849075317383,-0.1276646852493286,-0.1441737711429596,0.05408794805407524,1473.0181884765625,2113.58251953125,-16189.2294921875,-1058.9351806640625,-1110.0745849609375,373.069580078125,44.03963088989258,-6.072860240936279,3.112715721130371
1731876724709.0,0.0,0.0,-20.0,0.0,0.0,0.0,0.0,0.0,0.0,0.0,0.0,0.0,0.0,0.0,0.0,-7.622821807861328,4.82421875,7.430849075317383,-0.1276646852493286,-0.1441737711429596,0.05408794805407524,1473.0181884765625,2113.58251953125,-16189.2294921875,-1058.9351806640625,-1110.0745849609375,373.069580078125,44.03963088989258,-6.072860240936279,3.112715721130371
1731876724725.0,0.0,0.0,-20.0,0.0,0.0,0.0,0.0,0.0,0.0,0.0,0.0,0.0,0.0,0.0,0.0,-7.762176990509033,4.668792724609375,7.514675617218018,-0.12597832083702087,-0.14615082740783691,0.05156843736767769,1292.7252197265625,2137.5615234375,-16084.3349609375,-881.9126586914062,-1055.28857421875,310.0302734375,44.41041564941406,-6.455796241760254,2.9325692653656006
1731876724776.0,0.0,0.0,-20.0,0.0,0.0,0.0,0.0,0.0,0.0,0.0,0.0,0.0,0.0,0.0,0.0,-8.034385681152344,4.347991943359375,7.67301082611084,-0.12052527070045471,-0.15204907953739166,0.04365145415067673,1434.3858642578125,2247.08203125,-16281.5234375,-848.0160522460938,-1260.1842041015625,482.454345703125,44.87651824951172,-5.93368673324585,2.1577086448669434
1731876724792.0,0.0,0.0,-20.0,0.0,0.0,0.0,0.0,0.0,0.0,0.0,0.0,0.0,0.0,0.0,0.0,-8.166973114013672,4.18255615234375,7.74729061126709,-0.11867088079452515,-0.15389835834503174,0.04103194922208786,1180.4874267578125,2347.601806640625,-16172.638671875,-925.6660766601562,-1160.9666748046875,348.55120849609375,44.39689636230469,-6.482552528381348,2.2710189819335938
1731876724808.0,0.0,0.0,-20.0,0.0,0.0,0.0,0.0,0.0,0.0,0.0,0.0,0.0,0.0,0.0,0.0,-8.29781723022461,4.014739990234375,7.8192620277404785,-0.11681210994720459,-0.1556791216135025,0.038440123200416565,1181.0111083984375,2417.20361328125,-16201.271484375,-940.4656372070312,-1144.042724609375,147.53179931640625,44.71088409423828,-6.52107048034668,2.263070821762085
1731876724825.0,0.0,0.0,-20.0,0.0,0.0,0.0,0.0,0.0,0.0,0.0,0.0,0.0,0.0,0.0,0.0,-8.426898002624512,3.844635009765625,7.888949871063232,-0.11485091596841812,-0.15748290717601776,0.035740457475185394,1125.8057861328125,2240.41943359375,-16101.279296875,-782.3658447265625,-948.8764038085938,373.6885070800781,44.133811950683594,-5.930556297302246,1.4764556884765625
1731876724875.0,0.0,0.0,-20.0,0.0,0.0,0.0,0.0,0.0,0.0,0.0,0.0,0.0,0.0,0.0,0.0,-8.677295684814453,3.495147705078125,8.018440246582031,-0.10887748003005981,-0.1625390201807022,0.02772132121026516,949.7672119140625,2346.759765625,-16131.791015625,-737.3257446289062,-1257.591064453125,257.54193115234375,44.196128845214844,-6.653834342956543,1.961287021636963
1731876724891.0,0.0,0.0,-20.0,0.0,0.0,0.0,0.0,0.0,0.0,0.0,0.0,0.0,0.0,0.0,0.0,-8.798508644104004,3.31585693359375,8.078238487243652,-0.10687349736690521,-0.1640985906124115,0.025094591081142426,1062.3134765625,2560.6005859375,-16221.0966796875,-750.2894287109375,-1277.4576416015625,151.150634765625,44.547183990478516,-6.8668622970581055,2.0519301891326904
1731876724909.0,0.0,0.0,-20.0,0.0,0.0,0.0,0.0,0.0,0.0,0.0,0.0,0.0,0.0,0.0,0.0,-8.917743682861328,3.134490966796875,8.135699272155762,-0.1047259122133255,-0.16569910943508148,0.02231256291270256,833.5128173828125,2438.60595703125,-16085.3232421875,-1010.6502685546875,-1377.0084228515625,152.87347412109375,44.54875183105469,-6.501829147338867,1.339991569519043
1731876724925.0,0.0,0.0,-20.0,0.0,0.0,0.0,0.0,0.0,0.0,0.0,0.0,0.0,0.0,0.0,0.0,-9.034833908081055,2.950927734375,8.190657615661621,-0.1026177629828453,-0.1672019511461258,0.019613388925790787,883.9871215820312,2499.37841796875,-16046.4521484375,-816.4880981445312,-1360.4920654296875,227.71290588378906,44.45298767089844,-6.452121257781982,1.3006917238235474
1731876724975.0,0.0,0.0,-20.0,0.0,0.0,0.0,0.0,0.0,0.0,0.0,0.0,0.0,0.0,0.0,0.0,-9.260223388671875,2.57550048828125,8.290431022644043,-0.09608545899391174,-0.17145700752735138,0.011436505243182182,972.1152954101562,2755.678466796875,-16051.806640625,-797.6533203125,-1168.3740234375,48.693016052246094,44.35552215576172,-6.346789836883545,1.0387449264526367
1731876724992.0,0.0,0.0,-20.0,0.0,0.0,0.0,0.0,0.0,0.0,0.0,0.0,0.0,0.0,0.0,0.0,-9.368391990661621,2.38372802734375,8.335204124450684,-0.09388367086648941,-0.17276279628276825,0.00874011404812336,933.4417724609375,2547.284423828125,-16085.255859375,-821.5726928710938,-957.6654052734375,286.0755310058594,45.00017166137695,-7.009202480316162,1.0443891286849976
1731876725009.0,0.0,0.0,-20.0,0.0,0.0,0.0,0.0,0.0,0.0,0.0,0.0,0.0,0.0,0.0,0.0,-9.474285125732422,2.1900634765625,8.377525329589844,-0.09163980185985565,-0.1740308254957199,0.006021351553499699,566.010986328125,2587.512939453125,-16235.38671875,-635.7935791015625,-1296.3331298828125,-12.958498001098633,44.29020690917969,-6.3558197021484375,0.7707861065864563
1731876725025.0,0.0,0.0,-20.0,0.0,0.0,0.0,0.0,0.0,0.0,0.0,0.0,0.0,0.0,0.0,0.0,-9.577842712402344,1.994537353515625,8.417360305786133,-0.08932872116565704,-0.1752728372812271,0.0032509155571460724,569.4053344726562,2792.9697265625,-16178.228515625,-528.7508544921875,-1169.4390869140625,35.607295989990234,44.466224670410156,-6.759952545166016,0.32834476232528687
1731876725059.0,0.0,0.0,-20.0,0.0,0.0,0.0,0.0,0.0,0.0,0.0,0.0,0.0,0.0,0.0,0.0,-9.678973197937012,1.797119140625,8.4546480178833,-0.08468203991651535,-0.17758208513259888,-0.002231933642178774,648.6686401367188,2794.454345703125,-16200.662109375,-620.2660522460938,-1314.67578125,-23.53795051574707,44.682804107666016,-6.3960700035095215,0.524775505065918
1731876725092.0,0.0,0.0,-20.0,0.0,0.0,0.0,0.0,0.0,0.0,0.0,0.0,0.0,0.0,0.0,0.0,-9.868570327758789,1.39337158203125,8.515768051147461,-0.07994937151670456,-0.17968899011611938,-0.00770228449255228,395.7903747558594,2707.46337890625,-16068.109375,-641.8369750976562,-1421.223388671875,-109.71251678466797,44.571617126464844,-7.067044734954834,-0.8405187726020813
1731876725109.0,0.0,0.0,-20.0,0.0,0.0,0.0,0.0,0.0,0.0,0.0,0.0,0.0,0.0,0.0,0.0,-9.95958423614502,1.18902587890625,8.542532920837402,-0.07750963419675827,-0.18068313598632812,-0.010479558259248734,357.35516357421875,2874.447265625,-16231.6181640625,-555.4733276367188,-1377.2830810546875,-90.88465118408203,44.69660568237305,-6.984628200531006,0.03152354061603546
1731876725109.0,0.0,0.0,-20.0,0.0,0.0,0.0,0.0,0.0,0.0,0.0,0.0,0.0,0.0,0.0,0.0,-9.95958423614502,1.18902587890625,8.542532920837402,-0.07750963419675827,-0.18068313598632812,-0.010479558259248734,357.35516357421875,2874.447265625,-16231.6181640625,-555.4733276367188,-1377.2830810546875,-90.88465118408203,44.69660568237305,-6.984628200531006,0.03152354061603546
1731876725159.0,0.0,0.0,-20.0,0.0,0.0,0.0,0.0,0.0,0.0,0.0,0.0,0.0,0.0,0.0,0.0,-10.13365364074707,0.7755126953125,8.588236808776855,-0.07023113965988159,-0.18329696357250214,-0.01860121265053749,266.5483703613281,2832.55078125,-16179.0556640625,-530.0679321289062,-1472.2257080078125,-233.07749938964844,44.64060974121094,-7.140954971313477,-0.1819467842578888
1731876725175.0,0.0,0.0,-20.0,0.0,0.0,0.0,0.0,0.0,0.0,0.0,0.0,0.0,0.0,0.0,0.0,-10.213944435119629,0.56500244140625,8.604357719421387,-0.06779886782169342,-0.18405768275260925,-0.021262820810079575,87.7805404663086,2776.2197265625,-15973.498046875,-406.74078369140625,-1343.9346923828125,-180.04476928710938,44.396854400634766,-6.318057060241699,-0.6028296947479248
1731876725209.0,0.0,0.0,-20.0,0.0,0.0,0.0,0.0,0.0,0.0,0.0,0.0,0.0,0.0,0.0,0.0,-10.366299629211426,0.139862060546875,8.628857612609863,-0.06276042759418488,-0.18546205759048462,-0.026696600019931793,180.34840393066406,2997.1484375,-16170.5791015625,-513.0558471679688,-1513.224609375,-190.81961059570312,44.600486755371094,-6.872140884399414,-1.1834607124328613
1731876725209.0,0.0,0.0,-20.0,0.0,0.0,0.0,0.0,0.0,0.0,0.0,0.0,0.0,0.0,0.0,0.0,-10.366299629211426,0.139862060546875,8.628857612609863,-0.06276042759418488,-0.18546205759048462,-0.026696600019931793,180.34840393066406,2997.1484375,-16170.5791015625,-513.0558471679688,-1513.224609375,-190.81961059570312,44.600486755371094,-6.872140884399414,-1.1834607124328613
1731876725259.0,0.0,0.0,-20.0,0.0,0.0,0.0,0.0,0.0,0.0,0.0,0.0,0.0,0.0,0.0,0.0,-10.507237434387207,-0.29049545526504517,8.642773628234863,-0.055095985531806946,-0.1871732473373413,-0.034764718264341354,-89.28079223632812,2942.845947265625,-16139.291015625,-444.98638916015625,-1607.101806640625,-152.17794799804688,44.23731994628906,-7.1698899269104,-2.036863088607788
1731876725275.0,0.0,0.0,-20.0,0.0,0.0,0.0,0.0,0.0,0.0,0.0,0.0,0.0,0.0,0.0,0.0,-10.570371627807617,-0.5086483955383301,8.642838478088379,-0.05254422873258591,-0.18763351440429688,-0.03739997744560242,-173.45216369628906,2974.43212890625,-16088.763671875,-418.0711975097656,-1475.8214111328125,-326.8361511230469,44.19632339477539,-6.745579242706299,-1.4850655794143677
1731876725292.0,0.0,0.0,-20.0,0.0,0.0,0.0,0.0,0.0,0.0,0.0,0.0,0.0,0.0,0.0,0.0,-10.6305570602417,-0.7278752326965332,8.640265464782715,-0.04996867477893829,-0.1880442053079605,-0.04003477096557617,-282.9662170410156,3041.3828125,-15994.640625,-337.7008056640625,-1355.9622802734375,-224.41021728515625,44.54708480834961,-6.8401780128479,-1.8364579677581787
1731876725309.0,0.0,0.0,-20.0,0.0,0.0,0.0,0.0,0.0,0.0,0.0,0.0,0.0,0.0,0.0,0.0,-10.687740325927734,-0.9481253623962402,8.63503646850586,-0.047341130673885345,-0.18840841948986053,-0.042697273194789886,-409.13238525390625,3128.124755859375,-16201.2548828125,-386.8712158203125,-1780.397705078125,-315.839111328125,44.85822677612305,-6.350095272064209,-2.229933023452759
1731876725325.0,0.0,0.0,-20.0,0.0,0.0,0.0,0.0,0.0,0.0,0.0,0.0,0.0,0.0,0.0,0.0,-10.741844177246094,-1.1693581342697144,8.62710189819336,-0.04474838823080063,-0.18871435523033142,-0.04529965668916702,-384.4085388183594,3200.8427734375,-16131.091796875,-382.2110900878906,-1463.62158203125,-350.55535888671875,43.969600677490234,-6.706526279449463,-1.9865024089813232
1731876725359.0,0.0,0.0,-20.0,0.0,0.0,0.0,0.0,0.0,0.0,0.0,0.0,0.0,0.0,0.0,0.0,-10.792884826660156,-1.3914992809295654,8.61650276184082,-0.03943973407149315,-0.18917830288410187,-0.05055248364806175,-303.9058532714844,3142.989013671875,-16327.5009765625,-399.8927001953125,-1254.341552734375,-384.93212890625,44.68090057373047,-6.540009498596191,-2.2767422199249268
1731876725392.0,0.0,0.0,-20.0,0.0,0.0,0.0,0.0,0.0,0.0,0.0,0.0,0.0,0.0,0.0,0.0,-10.879220962524414,-1.839847445487976,8.581319808959961,-0.03411618247628212,-0.18942907452583313,-0.05572033300995827,-488.15545654296875,3232.026123046875,-16136.5302734375,-190.33155822753906,-1431.491455078125,-288.3799133300781,44.858245849609375,-6.4364728927612305,-2.7361629009246826
1731876725409.0,0.0,0.0,-20.0,0.0,0.0,0.0,0.0,0.0,0.0,0.0,0.0,0.0,0.0,0.0,0.0,-10.91757869720459,-2.0650742053985596,8.559649467468262,-0.03143981844186783,-0.18947559595108032,-0.05828140676021576,-565.30322265625,3147.086669921875,-16018.4443359375,-266.39410400390625,-1373.99169921875,-444.3066711425781,44.495323181152344,-5.911592483520508,-3.081973075866699
1731876725426.0,0.0,0.0,-20.0,0.0,0.0,0.0,0.0,0.0,0.0,0.0,0.0,0.0,0.0,0.0,0.0,-10.952679634094238,-2.290924310684204,8.535245895385742,-0.028695616871118546,-0.18946875631809235,-0.06088204309344292,-712.0385131835938,3277.94482421875,-16130.26171875,-109.57792663574219,-1250.4425048828125,-495.7809143066406,44.357112884521484,-5.708452224731445,-3.006714105606079
1731876725459.0,0.0,0.0,-20.0,0.0,0.0,0.0,0.0,0.0,0.0,0.0,0.0,0.0,0.0,0.0,0.0,-10.984421730041504,-2.5173470973968506,8.508041381835938,-0.023272210732102394,-0.18929491937160492,-0.06594718247652054,-854.8533325195312,3086.348876953125,-16155.751953125,-99.28251647949219,-1321.6993408203125,-626.5162353515625,44.53168487548828,-5.8514018058776855,-3.5353517532348633
1731876725476.0,0.0,0.0,-20.0,0.0,0.0,0.0,0.0,0.0,0.0,0.0,0.0,0.0,0.0,0.0,0.0,-11.00958251953125,-2.7446954250335693,8.475202560424805,-0.0205751471221447,-0.18913008272647858,-0.0684296116232872,-726.8897094726562,3265.76806640625,-16030.119140625,-221.97134399414062,-1198.117919921875,-370.66326904296875,44.67354202270508,-5.8518900871276855,-3.26273512840271
1731876725509.0,0.0,0.0,-20.0,0.0,0.0,0.0,0.0,0.0,0.0,0.0,0.0,0.0,0.0,0.0,0.0,-11.049849510192871,-3.200441598892212,8.401329040527344,-0.015204593539237976,-0.18864832818508148,-0.07330140471458435,-1022.1500244140625,3114.85107421875,-16174.28515625,-95.23365020751953,-1518.9945068359375,-551.1686401367188,44.62860870361328,-6.0703043937683105,-3.730706214904785
1731876725509.0,0.0,0.0,-20.0,0.0,0.0,0.0,0.0,0.0,0.0,0.0,0.0,0.0,0.0,0.0,0.0,-11.049849510192871,-3.200441598892212,8.401329040527344,-0.015204593539237976,-0.18864832818508148,-0.07330140471458435,-1022.1500244140625,3114.85107421875,-16174.28515625,-95.23365020751953,-1518.9945068359375,-551.1686401367188,44.62860870361328,-6.0703043937683105,-3.730706214904785
1731876725526.0,0.0,0.0,-20.0,0.0,0.0,0.0,0.0,0.0,0.0,0.0,0.0,0.0,0.0,0.0,0.0,-11.064901351928711,-3.428713321685791,8.360281944274902,-0.012472851201891899,-0.18832546472549438,-0.07574325799942017,-975.4993896484375,3188.453125,-16028.1796875,-66.00350952148438,-1527.8336181640625,-533.4310302734375,44.12961196899414,-5.882665634155273,-3.896233320236206
1731876725576.0,0.0,0.0,-20.0,0.0,0.0,0.0,0.0,0.0,0.0,0.0,0.0,0.0,0.0,0.0,0.0,-11.081208229064941,-3.8857882022857666,8.26700496673584,-0.004169730469584465,-0.18702469766139984,-0.08301672339439392,-1173.8941650390625,3208.23291015625,-16067.84765625,-188.8236541748047,-1275.517578125,-625.1892700195312,44.10383987426758,-6.028291702270508,-3.523641347885132
1731876725593.0,0.0,0.0,-20.0,0.0,0.0,0.0,0.0,0.0,0.0,0.0,0.0,0.0,0.0,0.0,0.0,-11.082340240478516,-4.114391803741455,8.214715957641602,-0.0014486219733953476,-0.18649426102638245,-0.08535195887088776,-1114.82568359375,3098.75634765625,-15949.431640625,-3.529158592224121,-1184.7745361328125,-655.9082641601562,44.56143569946289,-5.778034687042236,-4.145811557769775
1731876725609.0,0.0,0.0,-20.0,0.0,0.0,0.0,0.0,0.0,0.0,0.0,0.0,0.0,0.0,0.0,0.0,-11.079939842224121,-4.342912673950195,8.15965747833252,0.0013029128313064575,-0.18590569496154785,-0.08768901973962784,-1347.3314208984375,3161.386474609375,-15985.2314453125,-68.64496612548828,-1576.5927734375,-773.4342041015625,44.63697814941406,-5.845073699951172,-4.887517929077148
1731876725626.0,0.0,0.0,-20.0,0.0,0.0,0.0,0.0,0.0,0.0,0.0,0.0,0.0,0.0,0.0,0.0,-11.073952674865723,-4.571281909942627,8.101800918579102,0.004024073481559753,-0.18527203798294067,-0.08997631072998047,-1259.519775390625,3152.980224609375,-16024.1279296875,27.47499656677246,-1659.18798828125,-616.8851318359375,44.43348693847656,-5.797217845916748,-4.5603814125061035
1731876725676.0,0.0,0.0,-20.0,0.0,0.0,0.0,0.0,0.0,0.0,0.0,0.0,0.0,0.0,0.0,0.0,-11.047748565673828,-5.026948928833008,7.974969863891602,0.01214795932173729,-0.18307442963123322,-0.09666264802217484,-1445.8167724609375,3059.7314453125,-16018.234375,3.967241048812866,-1353.4661865234375,-690.0693359375,44.1915168762207,-5.512980937957764,-4.988015651702881
1731876725692.0,0.0,0.0,-20.0,0.0,0.0,0.0,0.0,0.0,0.0,0.0,0.0,0.0,0.0,0.0,0.0,-11.027660369873047,-5.254062652587891,7.906139373779297,0.01487020030617714,-0.18223509192466736,-0.09885530173778534,-1579.1077880859375,3206.943603515625,-15952.0205078125,166.92242431640625,-1297.480224609375,-640.4325561523438,44.27573776245117,-5.495460510253906,-5.694580078125
1731876725709.0,0.0,0.0,-20.0,0.0,0.0,0.0,0.0,0.0,0.0,0.0,0.0,0.0,0.0,0.0,0.0,-11.003923416137695,-5.480686664581299,7.834536075592041,0.017578348517417908,-0.1813485324382782,-0.10101261734962463,-1297.4422607421875,2913.095947265625,-15820.505859375,156.84617614746094,-1403.331787109375,-911.4819946289062,44.11989974975586,-5.066346645355225,-4.9292497634887695
1731876725726.0,0.0,0.0,-20.0,0.0,0.0,0.0,0.0,0.0,0.0,0.0,0.0,0.0,0.0,0.0,0.0,-10.976531028747559,-5.706752777099609,7.760169982910156,0.020311444997787476,-0.18040138483047485,-0.10316544026136398,-1634.694091796875,3207.10546875,-16156.2548828125,157.79104614257812,-1283.6903076171875,-733.7811889648438,44.11872482299805,-5.193178176879883,-5.222705841064453
1731876725759.0,0.0,0.0,-20.0,0.0,0.0,0.0,0.0,0.0,0.0,0.0,0.0,0.0,0.0,0.0,0.0,-10.945432662963867,-5.93218469619751,7.683016300201416,0.025700420141220093,-0.17837828397750854,-0.10733792930841446,-1495.23974609375,3262.812255859375,-15964.986328125,13.10096549987793,-1147.709716796875,-957.148681640625,44.734066009521484,-5.007402420043945,-5.246633529663086
1731876725776.0,0.0,0.0,-20.0,0.0,0.0,0.0,0.0,0.0,0.0,0.0,0.0,0.0,0.0,0.0,0.0,-10.907296180725098,-6.156199932098389,7.600532054901123,0.028424061834812164,-0.17727652192115784,-0.1094098910689354,-1790.8990478515625,3018.4599609375,-16009.2353515625,128.5574493408203,-1378.2763671875,-871.3007202148438,44.83470153808594,-4.9933085441589355,-5.859858512878418
1731876725809.0,0.0,0.0,-20.0,0.0,0.0,0.0,0.0,0.0,0.0,0.0,0.0,0.0,0.0,0.0,0.0,-10.819781303405762,-6.601611614227295,7.427238464355469,0.03376806527376175,-0.1749579757452011,-0.11340229958295822,-1899.767333984375,3067.35009765625,-16032.1005859375,235.6284637451172,-1110.33203125,-884.2386474609375,44.5558967590332,-5.016496658325195,-6.212220191955566
1731876725809.0,0.0,0.0,-20.0,0.0,0.0,0.0,0.0,0.0,0.0,0.0,0.0,0.0,0.0,0.0,0.0,-10.819781303405762,-6.601611614227295,7.427238464355469,0.03376806527376175,-0.1749579757452011,-0.11340229958295822,-1899.767333984375,3067.35009765625,-16032.1005859375,235.6284637451172,-1110.33203125,-884.2386474609375,44.5558967590332,-5.016496658325195,-6.212220191955566
1731876725859.0,0.0,0.0,-20.0,0.0,0.0,0.0,0.0,0.0,0.0,0.0,0.0,0.0,0.0,0.0,0.0,-10.717425346374512,-7.0431060791015625,7.243052959442139,0.04179952293634415,-0.17107461392879486,-0.11921700835227966,-1913.5936279296875,2906.817138671875,-15963.9453125,326.4081726074219,-1376.589111328125,-880.857666015625,44.2008056640625,-4.4129838943481445,-6.621269226074219
1731876725876.0,0.0,0.0,-20.0,0.0,0.0,0.0,0.0,0.0,0.0,0.0,0.0,0.0,0.0,0.0,0.0,-10.657243728637695,-7.261076927185059,7.144397735595703,0.04441560432314873,-0.1697038859128952,-0.12106181681156158,-2055.218017578125,2873.846923828125,-15845.89453125,417.92669677734375,-1093.2457275390625,-859.748046875,44.76023864746094,-4.5570831298828125,-6.895977973937988
1731876725909.0,0.0,0.0,-20.0,0.0,0.0,0.0,0.0,0.0,0.0,0.0,0.0,0.0,0.0,0.0,0.0,-10.525694847106934,-7.693150997161865,6.939047336578369,0.04963921383023262,-0.16680701076984406,-0.12467104941606522,-2121.95654296875,2765.151611328125,-15922.7861328125,305.528076171875,-1149.705322265625,-944.4436645507812,44.71208572387695,-4.167164325714111,-7.1185221672058105
1731876725909.0,0.0,0.0,-20.0,0.0,0.0,0.0,0.0,0.0,0.0,0.0,0.0,0.0,0.0,0.0,0.0,-10.525694847106934,-7.693150997161865,6.939047336578369,0.04963921383023262,-0.16680701076984406,-0.12467104941606522,-2121.95654296875,2765.151611328125,-15922.7861328125,305.528076171875,-1149.705322265625,-944.4436645507812,44.71208572387695,-4.167164325714111,-7.1185221672058105
1731876725926.0,0.0,0.0,-20.0,0.0,0.0,0.0,0.0,0.0,0.0,0.0,0.0,0.0,0.0,0.0,0.0,-10.454338073730469,-7.907115459442139,6.832387447357178,0.05224499851465225,-0.16528066992759705,-0.12643373012542725,-2272.19189453125,2930.942138671875,-16011.4658203125,458.0058288574219,-1101.774658203125,-990.4232788085938,44.15433883666992,-4.046804904937744,-7.112809181213379
1731876725976.0,0.0,0.0,-20.0,0.0,0.0,0.0,0.0,0.0,0.0,0.0,0.0,0.0,0.0,0.0,0.0,-10.297111511230469,-8.329020500183105,6.608850479125977,0.05996249243617058,-0.16043227910995483,-0.13150176405906677,-2367.197998046875,2930.883056640625,-15777.716796875,571.5579223632812,-1229.4315185546875,-986.200439453125,44.41307830810547,-3.8579773902893066,-7.608148097991943
1731876725993.0,0.0,0.0,-20.0,0.0,0.0,0.0,0.0,0.0,0.0,0.0,0.0,0.0,0.0,0.0,0.0,-10.211268424987793,-8.536751747131348,6.492032527923584,0.06246856227517128,-0.15874914824962616,-0.13309693336486816,-2341.5224609375,2758.344970703125,-15902.4443359375,372.6847839355469,-1214.5467529296875,-789.0441284179688,44.128326416015625,-4.061634540557861,-7.0979228019714355
1731876726009.0,0.0,0.0,-20.0,0.0,0.0,0.0,0.0,0.0,0.0,0.0,0.0,0.0,0.0,0.0,0.0,-10.121753692626953,-8.742730140686035,6.372664928436279,0.06495767831802368,-0.15702293813228607,-0.13465595245361328,-2532.239990234375,2903.601318359375,-15876.2685546875,564.4589233398438,-1191.3177490234375,-871.16796875,43.95810317993164,-3.4139716625213623,-7.057176113128662
1731876726026.0,0.0,0.0,-20.0,0.0,0.0,0.0,0.0,0.0,0.0,0.0,0.0,0.0,0.0,0.0,0.0,-10.028575897216797,-8.946884155273438,6.250767707824707,0.06746561825275421,-0.15522755682468414,-0.1362006962299347,-2570.30078125,2872.685546875,-15959.451171875,573.2432250976562,-1143.481689453125,-1102.34814453125,44.156036376953125,-3.9651434421539307,-7.69507360458374
1731876726059.0,0.0,0.0,-20.0,0.0,0.0,0.0,0.0,0.0,0.0,0.0,0.0,0.0,0.0,0.0,0.0,-9.931695938110352,-9.149120330810547,6.126334190368652,0.07244216650724411,-0.15149317681789398,-0.13918602466583252,-2735.653564453125,2784.95751953125,-15772.939453125,593.9691772460938,-1275.8162841796875,-1011.4144287109375,44.40277862548828,-3.6887097358703613,-7.417726516723633
1731876726093.0,0.0,0.0,-20.0,0.0,0.0,0.0,0.0,0.0,0.0,0.0,0.0,0.0,0.0,0.0,0.0,-9.720518112182617,-9.543749809265137,5.865811824798584,0.07730180025100708,-0.14761705696582794,-0.14199453592300415,-2634.471435546875,2754.307373046875,-15956.3447265625,647.4393310546875,-1039.1365966796875,-1156.7486572265625,44.5252685546875,-3.5754668712615967,-8.51097583770752
1731876726109.0,0.0,0.0,-20.0,0.0,0.0,0.0,0.0,0.0,0.0,0.0,0.0,0.0,0.0,0.0,0.0,-9.609512329101562,-9.737823486328125,5.7319159507751465,0.0797172486782074,-0.1456024944782257,-0.1433495581150055,-2690.16259765625,2566.1162109375,-15962.478515625,595.2523803710938,-1202.0797119140625,-1169.0067138671875,44.325740814208984,-3.2652809619903564,-8.15984058380127
1731876726126.0,0.0,0.0,-20.0,0.0,0.0,0.0,0.0,0.0,0.0,0.0,0.0,0.0,0.0,0.0,0.0,-9.494885444641113,-9.929616928100586,5.5956130027771,0.08208425343036652,-0.1435694843530655,-0.14465005695819855,-2679.4208984375,2498.97412109375,-16048.271484375,585.8133544921875,-1175.7698974609375,-1054.5301513671875,44.46870422363281,-3.4569852352142334,-8.565771102905273
1731876726159.0,0.0,0.0,-20.0,0.0,0.0,0.0,0.0,0.0,0.0,0.0,0.0,0.0,0.0,0.0,0.0,-9.376688957214355,-10.119085311889648,5.456953525543213,0.08676673471927643,-0.13936978578567505,-0.1471399962902069,-2947.72802734375,2658.855712890625,-15744.318359375,612.0928955078125,-1086.955810546875,-884.7528076171875,44.12953186035156,-2.9446232318878174,-8.936211585998535
1731876726176.0,0.0,0.0,-20.0,0.0,0.0,0.0,0.0,0.0,0.0,0.0,0.0,0.0,0.0,0.0,0.0,-9.251944541931152,-10.303975105285645,5.314154148101807,0.08907216042280197,-0.13721154630184174,-0.14832383394241333,-2975.500732421875,2576.910400390625,-15837.0166015625,638.2658081054688,-907.007568359375,-1126.7027587890625,43.91763687133789,-2.6056525707244873,-9.012883186340332
1731876726209.0,0.0,0.0,-20.0,0.0,0.0,0.0,0.0,0.0,0.0,0.0,0.0,0.0,0.0,0.0,0.0,-8.992006301879883,-10.666097640991211,5.021820545196533,0.09362460672855377,-0.13276496529579163,-0.15057557821273804,-2972.504150390625,2385.284423828125,-15876.439453125,573.1936645507812,-895.8101806640625,-1373.233154296875,44.09375,-2.449836492538452,-8.942688941955566
1731876726209.0,0.0,0.0,-20.0,0.0,0.0,0.0,0.0,0.0,0.0,0.0,0.0,0.0,0.0,0.0,0.0,-8.992006301879883,-10.666097640991211,5.021820545196533,0.09362460672855377,-0.13276496529579163,-0.15057557821273804,-2972.504150390625,2385.284423828125,-15876.439453125,573.1936645507812,-895.8101806640625,-1373.233154296875,44.09375,-2.449836492538452,-8.942688941955566
1731876726259.0,0.0,0.0,-20.0,0.0,0.0,0.0,0.0,0.0,0.0,0.0,0.0,0.0,0.0,0.0,0.0,-8.718235969543457,-11.017487525939941,4.720711708068848,0.10023162513971329,-0.12584416568279266,-0.1536261886358261,-3315.8828125,2382.466552734375,-15943.0478515625,850.2545776367188,-963.4585571289062,-981.0886840820312,43.8250732421875,-2.4672584533691406,-9.105486869812012
1731876726276.0,0.0,0.0,-20.0,0.0,0.0,0.0,0.0,0.0,0.0,0.0,0.0,0.0,0.0,0.0,0.0,-8.573480606079102,-11.186519622802734,4.565441131591797,0.10239474475383759,-0.12344896048307419,-0.154564768075943,-3056.552734375,2485.543701171875,-15942.228515625,934.24365234375,-910.21728515625,-1077.0748291015625,43.2198486328125,-1.7832040786743164,-9.619726181030273
1731876726310.0,0.0,0.0,-20.0,0.0,0.0,0.0,0.0,0.0,0.0,0.0,0.0,0.0,0.0,0.0,0.0,-8.274096488952637,-11.515732765197754,4.248891353607178,0.1066262274980545,-0.11856388300657272,-0.15630808472633362,-3259.76904296875,2480.217041015625,-15679.5068359375,1077.080322265625,-910.4707641601562,-1159.11376953125,44.50797653198242,-2.1659014225006104,-9.39442253112793
1731876726310.0,0.0,0.0,-20.0,0.0,0.0,0.0,0.0,0.0,0.0,0.0,0.0,0.0,0.0,0.0,0.0,-8.274096488952637,-11.515732765197754,4.248891353607178,0.1066262274980545,-0.11856388300657272,-0.15630808472633362,-3259.76904296875,2480.217041015625,-15679.5068359375,1077.080322265625,-910.4707641601562,-1159.11376953125,44.50797653198242,-2.1659014225006104,-9.39442253112793
1731876726326.0,0.0,0.0,-20.0,0.0,0.0,0.0,0.0,0.0,0.0,0.0,0.0,0.0,0.0,0.0,0.0,-8.119508743286133,-11.675747871398926,4.087686061859131,0.10865616798400879,-0.11612135171890259,-0.15709832310676575,-3391.3515625,2421.05615234375,-15756.9833984375,757.8697509765625,-818.993408203125,-1266.381103515625,44.58723831176758,-1.825669527053833,-9.416330337524414
1731876726376.0,0.0,0.0,-20.0,0.0,0.0,0.0,0.0,0.0,0.0,0.0,0.0,0.0,0.0,0.0,0.0,-7.798365116119385,-11.983660697937012,3.758502960205078,0.11466827988624573,-0.10847590863704681,-0.15924745798110962,-3367.831787109375,2252.83251953125,-15846.453125,745.0740966796875,-656.7554931640625,-1168.8013916015625,43.43059539794922,-1.5240858793258667,-9.69963264465332
1731876726393.0,0.0,0.0,-20.0,0.0,0.0,0.0,0.0,0.0,0.0,0.0,0.0,0.0,0.0,0.0,0.0,-7.631903171539307,-12.131338119506836,3.590655565261841,0.11658328026533127,-0.10590109974145889,-0.15986713767051697,-3575.302734375,2061.447509765625,-15897.7470703125,989.7925415039062,-477.980712890625,-1131.544677734375,43.956722259521484,-1.815077304840088,-10.057660102844238
1731876726410.0,0.0,0.0,-20.0,0.0,0.0,0.0,0.0,0.0,0.0,0.0,0.0,0.0,0.0,0.0,0.0,-7.4624786376953125,-12.275701522827148,3.4211573600769043,0.11852193623781204,-0.10321997106075287,-0.16045977175235748,-3542.973876953125,1983.4248046875,-15871.7021484375,1061.41259765625,-666.0267333984375,-1189.974853515625,44.0538444519043,-0.728941023349762,-9.931815147399902
1731876726426.0,0.0,0.0,-20.0,0.0,0.0,0.0,0.0,0.0,0.0,0.0,0.0,0.0,0.0,0.0,0.0,-7.290073394775391,-12.416611671447754,3.250034809112549,0.12037894129753113,-0.10057774186134338,-0.1609930396080017,-3394.99462890625,1908.3045654296875,-15961.087890625,866.1780395507812,-765.2047119140625,-1096.8043212890625,44.01336669921875,-1.2605981826782227,-9.492959022521973
1731876726476.0,0.0,0.0,-20.0,0.0,0.0,0.0,0.0,0.0,0.0,0.0,0.0,0.0,0.0,0.0,0.0,-6.934413909912109,-12.684986114501953,2.902301549911499,0.12580808997154236,-0.0923980325460434,-0.16234062612056732,-3760.782958984375,2029.06591796875,-16012.76953125,975.60009765625,-765.3997802734375,-1093.96435546875,43.84416198730469,-1.51225745677948,-10.142763137817383
1731876726493.0,0.0,0.0,-20.0,0.0,0.0,0.0,0.0,0.0,0.0,0.0,0.0,0.0,0.0,0.0,0.0,-6.751314163208008,-12.812276840209961,2.7258646488189697,0.12754809856414795,-0.0896187499165535,-0.1626991629600525,-3696.011474609375,1940.1451416015625,-15762.328125,827.38037109375,-631.5275268554688,-1255.9329833984375,44.24861145019531,-0.22180932760238647,-9.725887298583984
1731876726510.0,0.0,0.0,-20.0,0.0,0.0,0.0,0.0,0.0,0.0,0.0,0.0,0.0,0.0,0.0,0.0,-6.5655517578125,-12.93589973449707,2.5481221675872803,0.1292462795972824,-0.0868246778845787,-0.1630111187696457,-3548.341552734375,1838.7325439453125,-15776.1552734375,1116.6568603515625,-519.9942626953125,-1179.9774169921875,43.52346420288086,-0.8935264945030212,-9.706329345703125
1731876726527.0,0.0,0.0,-20.0,0.0,0.0,0.0,0.0,0.0,0.0,0.0,0.0,0.0,0.0,0.0,0.0,-6.377198219299316,-13.055811882019043,2.369144916534424,0.1309145987033844,-0.08399613946676254,-0.1632787436246872,-3752.85498046875,1833.0494384765625,-15696.11328125,918.9762573242188,-586.6016235351562,-1289.9718017578125,43.61369705200195,-0.5365474224090576,-10.20650863647461
1731876726560.0,0.0,0.0,-20.0,0.0,0.0,0.0,0.0,0.0,0.0,0.0,0.0,0.0,0.0,0.0,0.0,-6.18630838394165,-13.171960830688477,2.1889986991882324,0.13412946462631226,-0.07829045504331589,-0.16367578506469727,-3779.723388671875,1779.7821044921875,-15905.0673828125,982.5029296875,-523.2818603515625,-977.4666748046875,43.91215133666992,-0.5815127491950989,-10.164522171020508
1731876726593.0,0.0,0.0,-20.0,0.0,0.0,0.0,0.0,0.0,0.0,0.0,0.0,0.0,0.0,0.0,0.0,-5.793398857116699,-13.38631820678711,1.8244235515594482,0.13718989491462708,-0.07250850647687912,-0.16389085352420807,-3752.079345703125,1599.343505859375,-15961.5048828125,1216.197265625,-753.7836303710938,-1294.088623046875,43.860408782958984,-0.8001489043235779,-10.528560638427734
1731876726610.0,0.0,0.0,-20.0,0.0,0.0,0.0,0.0,0.0,0.0,0.0,0.0,0.0,0.0,0.0,0.0,-5.593512535095215,-13.487627983093262,1.6407603025436401,0.138687402009964,-0.06953863799571991,-0.16393065452575684,-3766.312744140625,1734.089599609375,-16074.265625,1094.37744140625,-440.01416015625,-1525.0433349609375,44.10593795776367,-0.5489133596420288,-10.833357810974121
1731876726627.0,0.0,0.0,-20.0,0.0,0.0,0.0,0.0,0.0,0.0,0.0,0.0,0.0,0.0,0.0,0.0,-5.3914079666137695,-13.584929466247559,1.4562746286392212,0.14011932909488678,-0.06660304218530655,-0.16392415761947632,-3806.900390625,1542.921142578125,-15956.228515625,1004.0205688476562,-615.8800048828125,-1195.5882568359375,43.85464096069336,-0.16909465193748474,-10.466142654418945
1731876726660.0,0.0,0.0,-20.0,0.0,0.0,0.0,0.0,0.0,0.0,0.0,0.0,0.0,0.0,0.0,0.0,-5.187188625335693,-13.678241729736328,1.2710494995117188,0.14287669956684113,-0.06065566465258598,-0.1637747436761856,-3910.5673828125,1417.5018310546875,-15918.2958984375,926.950439453125,-500.6665954589844,-1269.9384765625,43.85971450805664,0.12878969311714172,-10.644831657409668
1731876726676.0,0.0,0.0,-20.0,0.0,0.0,0.0,0.0,0.0,0.0,0.0,0.0,0.0,0.0,0.0,0.0,-4.979324817657471,-13.764102935791016,1.0849635601043701,0.1441579908132553,-0.057744432240724564,-0.16363665461540222,-3891.70849609375,1335.449951171875,-15932.9912109375,1181.153076171875,-390.85882568359375,-960.688720703125,43.74805450439453,-0.11932411044836044,-10.636201858520508
1731876726710.0,0.0,0.0,-20.0,0.0,0.0,0.0,0.0,0.0,0.0,0.0,0.0,0.0,0.0,0.0,0.0,-4.558053493499756,-13.923693656921387,0.7113147974014282,0.14670099318027496,-0.051643770188093185,-0.16321253776550293,-3953.541259765625,1257.19921875,-15917.2216796875,947.3900146484375,-330.54010009765625,-1223.29345703125,43.667118072509766,0.33038386702537537,-10.983257293701172
1731876726710.0,0.0,0.0,-20.0,0.0,0.0,0.0,0.0,0.0,0.0,0.0,0.0,0.0,0.0,0.0,0.0,-4.558053493499756,-13.923693656921387,0.7113147974014282,0.14670099318027496,-0.051643770188093185,-0.16321253776550293,-3953.541259765625,1257.19921875,-15917.2216796875,947.3900146484375,-330.54010009765625,-1223.29345703125,43.667118072509766,0.33038386702537537,-10.983257293701172
1731876726760.0,0.0,0.0,-20.0,0.0,0.0,0.0,0.0,0.0,0.0,0.0,0.0,0.0,0.0,0.0,0.0,-4.129732608795166,-14.066505432128906,0.33622607588768005,0.15019358694553375,-0.04241364821791649,-0.1622341275215149,-3821.18994140625,1279.7239990234375,-15813.12109375,1266.9696044921875,-219.61318969726562,-1125.0345458984375,43.90769577026367,0.7819746732711792,-11.001344680786133
1731876726777.0,0.0,0.0,-20.0,0.0,0.0,0.0,0.0,0.0,0.0,0.0,0.0,0.0,0.0,0.0,0.0,-3.911907196044922,-14.128022193908691,0.14853234589099884,0.1512673944234848,-0.03933078795671463,-0.16181935369968414,-4106.30712890625,1073.7584228515625,-15853.935546875,991.7604370117188,-324.51416015625,-1252.548095703125,43.51887893676758,0.07750856876373291,-10.82319450378418
1731876726810.0,0.0,0.0,-20.0,0.0,0.0,0.0,0.0,0.0,0.0,0.0,0.0,0.0,0.0,0.0,0.0,-3.4720375537872314,-14.238248825073242,-0.226898193359375,0.15329571068286896,-0.03311040624976158,-0.16085121035575867,-4214.82763671875,848.9952392578125,-16055.5234375,1308.06982421875,-252.5502166748047,-1440.7623291015625,43.309478759765625,1.0622832775115967,-10.55398941040039
1731876726810.0,0.0,0.0,-20.0,0.0,0.0,0.0,0.0,0.0,0.0,0.0,0.0,0.0,0.0,0.0,0.0,-3.4720375537872314,-14.238248825073242,-0.226898193359375,0.15329571068286896,-0.03311040624976158,-0.16085121035575867,-4214.82763671875,848.9952392578125,-16055.5234375,1308.06982421875,-252.5502166748047,-1440.7623291015625,43.309478759765625,1.0622832775115967,-10.55398941040039
1731876726827.0,0.0,0.0,-20.0,0.0,0.0,0.0,0.0,0.0,0.0,0.0,0.0,0.0,0.0,0.0,0.0,-3.2501649856567383,-14.286931037902832,-0.414459228515625,0.1542355716228485,-0.030020151287317276,-0.160305917263031,-3987.6728515625,961.851806640625,-15666.01171875,1013.957763671875,-316.21881103515625,-1199.346435546875,43.384490966796875,0.5150424838066101,-10.893350601196289
1731876726877.0,0.0,0.0,-20.0,0.0,0.0,0.0,0.0,0.0,0.0,0.0,0.0,0.0,0.0,0.0,0.0,-2.802138566970825,-14.367810249328613,-0.788299560546875,0.15681549906730652,-0.02064601518213749,-0.15839460492134094,-4098.02490234375,841.4563598632812,-15960.4990234375,1097.0743408203125,-221.8512420654297,-1286.3468017578125,43.95496368408203,1.5449912548065186,-10.969926834106445
1731876726893.0,0.0,0.0,-20.0,0.0,0.0,0.0,0.0,0.0,0.0,0.0,0.0,0.0,0.0,0.0,0.0,-2.576228380203247,-14.399956703186035,-0.97430419921875,0.15758711099624634,-0.01751638948917389,-0.15767133235931396,-4150.96533203125,638.97119140625,-15839.0546875,986.3514404296875,-212.12916564941406,-1406.9658203125,43.36473083496094,1.3521850109100342,-10.757711410522461
1731876726910.0,0.0,0.0,-20.0,0.0,0.0,0.0,0.0,0.0,0.0,0.0,0.0,0.0,0.0,0.0,0.0,-2.3494744300842285,-14.427776336669922,-1.1597900390625,0.15832823514938354,-0.014324276708066463,-0.15689009428024292,-4093.624267578125,566.6192626953125,-15870.6123046875,1019.1685791015625,-148.32310485839844,-1110.67626953125,43.619503021240234,2.0118472576141357,-11.420031547546387
1731876726927.0,0.0,0.0,-20.0,0.0,0.0,0.0,0.0,0.0,0.0,0.0,0.0,0.0,0.0,0.0,0.0,-2.12195086479187,-14.451189994812012,-1.344635009765625,0.15901926159858704,-0.011151157319545746,-0.15607015788555145,-4096.30517578125,385.56903076171875,-15953.5673828125,903.546142578125,-64.50039672851562,-1222.4859619140625,44.00613784790039,1.583702802658081,-11.117070198059082
1731876726977.0,0.0,0.0,-20.0,0.0,0.0,0.0,0.0,0.0,0.0,0.0,0.0,0.0,0.0,0.0,0.0,-1.6645219326019287,-14.481252670288086,-1.71112060546875,0.1608111709356308,-0.0016859234310686588,-0.15336871147155762,-4042.8154296875,501.327392578125,-15900.34765625,1177.958740234375,27.681156158447266,-1135.8499755859375,43.59148406982422,1.8095216751098633,-11.36085033416748
1731876726994.0,0.0,0.0,-20.0,0.0,0.0,0.0,0.0,0.0,0.0,0.0,0.0,0.0,0.0,0.0,0.0,-1.4348748922348022,-14.487936019897461,-1.89251708984375,0.16132116317749023,0.0014828252606093884,-0.15237906575202942,-4027.028564453125,222.41493225097656,-15916.0263671875,1073.1468505859375,-94.58302307128906,-1219.639892578125,43.57737350463867,2.280721426010132,-11.165029525756836
1731876727010.0,0.0,0.0,-20.0,0.0,0.0,0.0,0.0,0.0,0.0,0.0,0.0,0.0,0.0,0.0,0.0,-1.2048933506011963,-14.490260124206543,-2.0728759765625,0.1617860496044159,0.004651159048080444,-0.15134674310684204,-4181.78564453125,151.1333465576172,-15930.96875,994.8565673828125,20.956701278686523,-1102.619384765625,43.592491149902344,2.0610833168029785,-11.2899169921875
1731876727027.0,0.0,0.0,-20.0,0.0,0.0,0.0,0.0,0.0,0.0,0.0,0.0,0.0,0.0,0.0,0.0,-0.9746646881103516,-14.488224983215332,-2.2520751953125,0.16220714151859283,0.00782974623143673,-0.15026815235614777,-4251.81982421875,114.62840270996094,-15800.9892578125,1244.1590576171875,34.077449798583984,-991.0933837890625,43.32840347290039,1.8107168674468994,-10.577616691589355
1731876727060.0,0.0,0.0,-20.0,0.0,0.0,0.0,0.0,0.0,0.0,0.0,0.0,0.0,0.0,0.0,0.0,-0.7442746758460999,-14.48183822631836,-2.430023193359375,0.1629064828157425,0.01412174478173256,-0.14800572395324707,-4085.329345703125,91.08348083496094,-16007.078125,1229.206298828125,144.31581115722656,-1049.4349365234375,43.48771286010742,2.327226161956787,-11.001461029052734
1731876727094.0,0.0,0.0,-20.0,0.0,0.0,0.0,0.0,0.0,0.0,0.0,0.0,0.0,0.0,0.0,0.0,-0.2833596169948578,-14.448885917663574,-2.77923583984375,0.16342481970787048,0.020386621356010437,-0.14558416604995728,-4018.724365234375,-57.24510192871094,-15838.6494140625,1269.0687255859375,95.92810821533203,-1355.680908203125,43.49081039428711,2.3161818981170654,-11.3637056350708
1731876727110.0,0.0,0.0,-20.0,0.0,0.0,0.0,0.0,0.0,0.0,0.0,0.0,0.0,0.0,0.0,0.0,-0.05312075465917587,-14.426016807556152,-2.951568603515625,0.16361898183822632,0.023556966334581375,-0.14429405331611633,-4074.958740234375,133.8590545654297,-15931.6005859375,1194.2698974609375,192.451416015625,-967.6967163085938,43.5493278503418,2.4393398761749268,-11.100003242492676
1731876727127.0,0.0,0.0,-20.0,0.0,0.0,0.0,0.0,0.0,0.0,0.0,0.0,0.0,0.0,0.0,0.0,0.176849365234375,-14.398844718933105,-3.12225341796875,0.1637653261423111,0.026686275377869606,-0.14297768473625183,-4162.2255859375,-28.489059448242188,-15775.8115234375,1255.81005859375,300.13641357421875,-874.0455322265625,43.32827377319336,2.393505096435547,-11.094703674316406
1731876727161.0,0.0,0.0,-20.0,0.0,0.0,0.0,0.0,0.0,0.0,0.0,0.0,0.0,0.0,0.0,0.0,0.406494140625,-14.367430686950684,-3.291229248046875,0.1639215648174286,0.03292180225253105,-0.14022621512413025,-4051.5302734375,-131.4047393798828,-16060.0859375,1141.8641357421875,220.29498291015625,-996.6173706054688,43.20148468017578,2.5074806213378906,-11.443254470825195
1731876727194.0,0.0,0.0,-20.0,0.0,0.0,0.0,0.0,0.0,0.0,0.0,0.0,0.0,0.0,0.0,0.0,0.863616943359375,-14.284862518310547,-3.62030029296875,0.16389517486095428,0.039154715836048126,-0.13730260729789734,-4046.853271484375,-309.7532958984375,-15699.7685546875,1386.162841796875,495.7687683105469,-926.4935302734375,43.501461029052734,2.5630502700805664,-11.040837287902832
1731876727211.0,0.0,0.0,-20.0,0.0,0.0,0.0,0.0,0.0,0.0,0.0,0.0,0.0,0.0,0.0,0.0,1.091217041015625,-14.237317085266113,-3.781829833984375,0.16381274163722992,0.04226076230406761,-0.1357799768447876,-3983.0302734375,-279.88275146484375,-15975.4248046875,1219.4384765625,329.49609375,-1224.2113037109375,43.574337005615234,3.0136265754699707,-10.648163795471191
1731876727211.0,0.0,0.0,-20.0,0.0,0.0,0.0,0.0,0.0,0.0,0.0,0.0,0.0,0.0,0.0,0.0,1.091217041015625,-14.237317085266113,-3.781829833984375,0.16381274163722992,0.04226076230406761,-0.1357799768447876,-3983.0302734375,-279.88275146484375,-15975.4248046875,1219.4384765625,329.49609375,-1224.2113037109375,43.574337005615234,3.0136265754699707,-10.648163795471191
1731876727261.0,0.0,0.0,-20.0,0.0,0.0,0.0,0.0,0.0,0.0,0.0,0.0,0.0,0.0,0.0,0.0,1.544097900390625,-14.12986946105957,-4.098480224609375,0.1632949709892273,0.05142606794834137,-0.1310265064239502,-3901.218505859375,-380.326171875,-15774.2734375,1170.98486328125,390.3377685546875,-1021.2056884765625,43.81242370605469,3.1735939979553223,-11.507097244262695
1731876727277.0,0.0,0.0,-20.0,0.0,0.0,0.0,0.0,0.0,0.0,0.0,0.0,0.0,0.0,0.0,0.0,1.76849365234375,-14.066622734069824,-4.25146484375,0.16303148865699768,0.05445750057697296,-0.12936678528785706,-3973.388671875,-383.4270324707031,-15717.3134765625,1146.4227294921875,448.74359130859375,-738.5064697265625,43.458866119384766,3.014789342880249,-10.717179298400879
1731876727311.0,0.0,0.0,-20.0,0.0,0.0,0.0,0.0,0.0,0.0,0.0,0.0,0.0,0.0,0.0,0.0,2.21405029296875,-13.928182601928711,-4.55023193359375,0.16236470639705658,0.06050705909729004,-0.1259208470582962,-3894.214111328125,-698.9717407226562,-15816.28515625,1216.4837646484375,350.8825378417969,-882.4407348632812,43.16538619995117,2.802042007446289,-10.80510139465332
1731876727311.0,0.0,0.0,-20.0,0.0,0.0,0.0,0.0,0.0,0.0,0.0,0.0,0.0,0.0,0.0,0.0,2.21405029296875,-13.928182601928711,-4.55023193359375,0.16236470639705658,0.06050705909729004,-0.1259208470582962,-3894.214111328125,-698.9717407226562,-15816.28515625,1216.4837646484375,350.8825378417969,-882.4407348632812,43.16538619995117,2.802042007446289,-10.80510139465332
1731876727361.0,0.0,0.0,-20.0,0.0,0.0,0.0,0.0,0.0,0.0,0.0,0.0,0.0,0.0,0.0,0.0,2.654815673828125,-13.77403736114502,-4.838897705078125,0.16103146970272064,0.06940348446369171,-0.12051866948604584,-3912.975341796875,-764.763671875,-15839.791015625,1207.208984375,628.056884765625,-870.6483764648438,43.2815055847168,3.6566624641418457,-10.301069259643555
1731876727377.0,0.0,0.0,-20.0,0.0,0.0,0.0,0.0,0.0,0.0,0.0,0.0,0.0,0.0,0.0,0.0,2.872100830078125,-13.687939643859863,-4.9769287109375,0.16049952805042267,0.0723208338022232,-0.11865723133087158,-3984.998046875,-812.4049072265625,-15886.9013671875,1087.590576171875,729.125732421875,-704.0006103515625,43.317832946777344,3.3895559310913086,-10.883979797363281
1731876727411.0,0.0,0.0,-20.0,0.0,0.0,0.0,0.0,0.0,0.0,0.0,0.0,0.0,0.0,0.0,0.0,3.302215576171875,-13.504570007324219,-5.24468994140625,0.15929828584194183,0.07811598479747772,-0.11482253670692444,-3810.14794921875,-854.9988403320312,-15961.296875,1010.2606201171875,586.5431518554688,-938.3004150390625,44.015010833740234,3.589113235473633,-10.931809425354004
1731876727411.0,0.0,0.0,-20.0,0.0,0.0,0.0,0.0,0.0,0.0,0.0,0.0,0.0,0.0,0.0,0.0,3.302215576171875,-13.504570007324219,-5.24468994140625,0.15929828584194183,0.07811598479747772,-0.11482253670692444,-3810.14794921875,-854.9988403320312,-15961.296875,1010.2606201171875,586.5431518554688,-938.3004150390625,44.015010833740234,3.589113235473633,-10.931809425354004
1731876727461.0,0.0,0.0,-20.0,0.0,0.0,0.0,0.0,0.0,0.0,0.0,0.0,0.0,0.0,0.0,0.0,3.725921630859375,-13.306567192077637,-5.5008544921875,0.1571652889251709,0.08664409816265106,-0.10883276164531708,-3647.9814453125,-1001.97314453125,-15840.8154296875,1283.8515625,637.4638061523438,-730.3172607421875,44.21788024902344,3.728450059890747,-11.004077911376953
1731876727477.0,0.0,0.0,-20.0,0.0,0.0,0.0,0.0,0.0,0.0,0.0,0.0,0.0,0.0,0.0,0.0,3.93377685546875,-13.19917106628418,-5.62188720703125,0.15636976063251495,0.08942954242229462,-0.10678257048130035,-3714.181396484375,-1138.46435546875,-15703.490234375,1179.2578125,758.4373779296875,-879.5581665039062,43.07666778564453,3.5490705966949463,-10.19206428527832
1731876727511.0,0.0,0.0,-20.0,0.0,0.0,0.0,0.0,0.0,0.0,0.0,0.0,0.0,0.0,0.0,0.0,4.343902587890625,-12.974108695983887,-5.8546142578125,0.15463966131210327,0.09495574235916138,-0.10257109254598618,-3633.012451171875,-1189.9310302734375,-15732.099609375,930.6146850585938,705.9679565429688,-764.0552978515625,43.737937927246094,3.9815521240234375,-10.604875564575195
1731876727511.0,0.0,0.0,-20.0,0.0,0.0,0.0,0.0,0.0,0.0,0.0,0.0,0.0,0.0,0.0,0.0,4.343902587890625,-12.974108695983887,-5.8546142578125,0.15463966131210327,0.09495574235916138,-0.10257109254598618,-3633.012451171875,-1189.9310302734375,-15732.099609375,930.6146850585938,705.9679565429688,-764.0552978515625,43.737937927246094,3.9815521240234375,-10.604875564575195
1731876727561.0,0.0,0.0,-20.0,0.0,0.0,0.0,0.0,0.0,0.0,0.0,0.0,0.0,0.0,0.0,0.0,4.746185302734375,-12.735663414001465,-6.074554443359375,0.15171249210834503,0.103069007396698,-0.09602072834968567,-3655.986572265625,-1483.735107421875,-15958.8349609375,1216.353759765625,806.2699584960938,-617.9179077148438,43.410614013671875,4.020089149475098,-10.573201179504395
1731876727577.0,0.0,0.0,-20.0,0.0,0.0,0.0,0.0,0.0,0.0,0.0,0.0,0.0,0.0,0.0,0.0,4.94244384765625,-12.608688354492188,-6.17669677734375,0.15067631006240845,0.10565583407878876,-0.09383459389209747,-3382.7587890625,-1387.9761962890625,-15846.5029296875,1265.6368408203125,772.9998168945312,-667.4718017578125,43.2655029296875,4.173130512237549,-10.128650665283203
1731876727594.0,0.0,0.0,-20.0,0.0,0.0,0.0,0.0,0.0,0.0,0.0,0.0,0.0,0.0,0.0,0.0,5.136566162109375,-12.478636741638184,-6.275543212890625,0.14956708252429962,0.10829035937786102,-0.09155695140361786,-3468.134033203125,-1427.9879150390625,-16001.86328125,1047.67333984375,774.95703125,-698.21337890625,43.304481506347656,4.136066436767578,-9.817671775817871
1731876727611.0,0.0,0.0,-20.0,0.0,0.0,0.0,0.0,0.0,0.0,0.0,0.0,0.0,0.0,0.0,0.0,5.328460693359375,-12.345494270324707,-6.370941162109375,0.14843237400054932,0.11085660010576248,-0.08928689360618591,-3571.36962890625,-1600.91943359375,-15822.6484375,1205.3211669921875,708.7440185546875,-493.54974365234375,43.73701477050781,3.824711561203003,-10.231268882751465
1731876727627.0,0.0,0.0,-20.0,0.0,0.0,0.0,0.0,0.0,0.0,0.0,0.0,0.0,0.0,0.0,0.0,5.51812744140625,-12.209362030029297,-6.462890625,0.14724354445934296,0.11342008411884308,-0.08696679025888443,-3668.53369140625,-1648.6343994140625,-15839.923828125,1059.6754150390625,1172.08154296875,-679.2550659179688,43.509117126464844,4.146151065826416,-9.91015911102295
1731876727677.0,0.0,0.0,-20.0,0.0,0.0,0.0,0.0,0.0,0.0,0.0,0.0,0.0,0.0,0.0,0.0,5.88836669921875,-11.92578411102295,-6.633270263671875,0.14346843957901,0.12084479629993439,-0.07993202656507492,-3239.07958984375,-1681.4031982421875,-16066.208984375,1044.8702392578125,721.48486328125,-545.270263671875,43.491554260253906,4.914630889892578,-9.499408721923828
1731876727694.0,0.0,0.0,-20.0,0.0,0.0,0.0,0.0,0.0,0.0,0.0,0.0,0.0,0.0,0.0,0.0,6.068878173828125,-11.778517723083496,-6.71160888671875,0.14213192462921143,0.12325089424848557,-0.07754500210285187,-3482.773193359375,-1726.8310546875,-15822.4697265625,1140.873046875,761.109619140625,-601.8340454101562,43.95975875854492,3.95375394821167,-9.600244522094727
1731876727711.0,0.0,0.0,-20.0,0.0,0.0,0.0,0.0,0.0,0.0,0.0,0.0,0.0,0.0,0.0,0.0,6.246917724609375,-11.628564834594727,-6.786376953125,0.14073579013347626,0.12565764784812927,-0.07510103285312653,-3218.3056640625,-1683.6636962890625,-15768.896484375,994.4500122070312,921.6693725585938,-589.3931884765625,44.10588073730469,3.896249294281006,-8.927834510803223
1731876727727.0,0.0,0.0,-20.0,0.0,0.0,0.0,0.0,0.0,0.0,0.0,0.0,0.0,0.0,0.0,0.0,6.42242431640625,-11.47595500946045,-6.857452392578125,0.13932077586650848,0.1279946267604828,-0.07267163693904877,-3261.650146484375,-1960.489013671875,-15955.470703125,1026.3922119140625,1017.7530517578125,-619.1798706054688,43.763580322265625,4.156825065612793,-9.53815746307373
1731876727761.0,0.0,0.0,-20.0,0.0,0.0,0.0,0.0,0.0,0.0,0.0,0.0,0.0,0.0,0.0,0.0,6.59539794921875,-11.32079029083252,-6.924896240234375,0.1363593190908432,0.13258695602416992,-0.06772607564926147,-3160.697021484375,-1907.3359375,-16075.9853515625,912.0773315429688,881.4833374023438,-668.7855224609375,43.90787887573242,4.580440521240234,-9.200657844543457
1731876727794.0,0.0,0.0,-20.0,0.0,0.0,0.0,0.0,0.0,0.0,0.0,0.0,0.0,0.0,0.0,0.0,6.92889404296875,-10.998556137084961,-7.042327880859375,0.13323423266410828,0.1370474398136139,-0.06268656253814697,-3146.57568359375,-2019.168212890625,-15898.283203125,838.2363891601562,1333.8480224609375,-495.55474853515625,44.51426315307617,4.96847677230835,-8.781549453735352
1731876727811.0,0.0,0.0,-20.0,0.0,0.0,0.0,0.0,0.0,0.0,0.0,0.0,0.0,0.0,0.0,0.0,7.09161376953125,-10.833918571472168,-7.095428466796875,0.13163025677204132,0.13920070230960846,-0.06016331911087036,-3122.434814453125,-1975.553466796875,-16020.2392578125,1018.625732421875,1041.86474609375,-391.2244873046875,43.73917770385742,4.703000545501709,-8.936123847961426
1731876727811.0,0.0,0.0,-20.0,0.0,0.0,0.0,0.0,0.0,0.0,0.0,0.0,0.0,0.0,0.0,0.0,7.09161376953125,-10.833918571472168,-7.095428466796875,0.13163025677204132,0.13920070230960846,-0.06016331911087036,-3122.434814453125,-1975.553466796875,-16020.2392578125,1018.625732421875,1041.86474609375,-391.2244873046875,43.73917770385742,4.703000545501709,-8.936123847961426
1731876727861.0,0.0,0.0,-20.0,0.0,0.0,0.0,0.0,0.0,0.0,0.0,0.0,0.0,0.0,0.0,0.0,7.408966064453125,-10.498004913330078,-7.19036865234375,0.12657715380191803,0.14545759558677673,-0.052459001541137695,-3161.32861328125,-1983.5296630859375,-15993.7197265625,1064.7957763671875,1028.3651123046875,-331.4942626953125,44.112152099609375,4.33768367767334,-9.01967716217041
1731876727878.0,0.0,0.0,-20.0,0.0,0.0,0.0,0.0,0.0,0.0,0.0,0.0,0.0,0.0,0.0,0.0,7.561004638671875,-10.324913024902344,-7.2288818359375,0.12481734156608582,0.14746788144111633,-0.04985438287258148,-2916.250732421875,-2205.340576171875,-16038.8525390625,823.613525390625,1199.8619384765625,-440.1667175292969,43.740421295166016,5.193851470947266,-9.061725616455078
1731876727911.0,0.0,0.0,-20.0,0.0,0.0,0.0,0.0,0.0,0.0,0.0,0.0,0.0,0.0,0.0,0.0,7.8565673828125,-9.972833633422852,-7.294525146484375,0.12120027095079422,0.15135717391967773,-0.04461367800831795,-2810.05517578125,-2141.104736328125,-15901.4580078125,910.7516479492188,1005.6224365234375,-254.9523468017578,43.6939697265625,4.910109043121338,-8.531158447265625
1731876727928.0,0.0,0.0,-20.0,0.0,0.0,0.0,0.0,0.0,0.0,0.0,0.0,0.0,0.0,0.0,0.0,8.000091552734375,-9.793996810913086,-7.321624755859375,0.11932365596294403,0.15325582027435303,-0.041950128972530365,-2766.6240234375,-2208.646484375,-15992.1591796875,813.2764282226562,1177.1873779296875,-368.3542785644531,44.0654411315918,4.589762210845947,-8.044565200805664
1731876727945.0,0.0,0.0,-20.0,0.0,0.0,0.0,0.0,0.0,0.0,0.0,0.0,0.0,0.0,0.0,0.0,8.1407470703125,-9.61336898803711,-7.34490966796875,0.11742018163204193,0.1551043540239334,-0.039284393191337585,-2821.346923828125,-2223.90478515625,-16023.3359375,842.0625610351562,1281.824951171875,-280.77838134765625,44.326255798339844,4.69503116607666,-8.752777099609375
1731876727978.0,0.0,0.0,-20.0,0.0,0.0,0.0,0.0,0.0,0.0,0.0,0.0,0.0,0.0,0.0,0.0,8.278533935546875,-9.431026458740234,-7.364349365234375,0.11358668655157089,0.15860655903816223,-0.03401835262775421,-2573.188232421875,-2301.562255859375,-16006.796875,828.87451171875,1080.853759765625,-380.187255859375,43.90434646606445,4.302015781402588,-8.220072746276855
1731876728011.0,0.0,0.0,-20.0,0.0,0.0,0.0,0.0,0.0,0.0,0.0,0.0,0.0,0.0,0.0,0.0,8.539886474609375,-9.058531761169434,-7.385223388671875,0.10953307151794434,0.16201448440551758,-0.02858729287981987,-2773.43603515625,-2109.3994140625,-15993.23046875,908.9334106445312,1068.5869140625,-199.55496215820312,43.888572692871094,4.6691389083862305,-7.962378025054932
1731876728011.0,0.0,0.0,-20.0,0.0,0.0,0.0,0.0,0.0,0.0,0.0,0.0,0.0,0.0,0.0,0.0,8.539886474609375,-9.058531761169434,-7.385223388671875,0.10953307151794434,0.16201448440551758,-0.02858729287981987,-2773.43603515625,-2109.3994140625,-15993.23046875,908.9334106445312,1068.5869140625,-199.55496215820312,43.888572692871094,4.6691389083862305,-7.962378025054932
1731876728028.0,0.0,0.0,-20.0,0.0,0.0,0.0,0.0,0.0,0.0,0.0,0.0,0.0,0.0,0.0,0.0,8.6661376953125,-8.87006664276123,-7.389892578125,0.10749319195747375,0.16362327337265015,-0.025903623551130295,-2524.66796875,-2250.15185546875,-15936.51171875,710.9300537109375,1377.068603515625,-169.8022918701172,44.07349395751953,4.224501609802246,-7.8035430908203125
1731876728078.0,0.0,0.0,-20.0,0.0,0.0,0.0,0.0,0.0,0.0,0.0,0.0,0.0,0.0,0.0,0.0,8.90692138671875,-8.487861633300781,-7.384552001953125,0.10115082561969757,0.16820921003818512,-0.01775307022035122,-2364.859375,-2452.96484375,-16238.6298828125,747.3826293945312,992.8174438476562,-36.251731872558594,44.15304946899414,4.409117698669434,-7.741033554077148
1731876728095.0,0.0,0.0,-20.0,0.0,0.0,0.0,0.0,0.0,0.0,0.0,0.0,0.0,0.0,0.0,0.0,9.0213623046875,-8.294293403625488,-7.37451171875,0.09901121258735657,0.1696237474679947,-0.015065133571624756,-2336.31689453125,-2563.083251953125,-16072.96484375,795.7407836914062,1068.19140625,-124.72343444824219,44.25559997558594,4.368685722351074,-7.7746262550354
1731876728111.0,0.0,0.0,-20.0,0.0,0.0,0.0,0.0,0.0,0.0,0.0,0.0,0.0,0.0,0.0,0.0,9.13287353515625,-8.099629402160645,-7.360748291015625,0.09681244939565659,0.17101211845874786,-0.012333191931247711,-2327.693603515625,-2556.54052734375,-15835.154296875,802.9522705078125,1350.0692138671875,-25.856496810913086,44.118309020996094,4.6024169921875,-6.877543926239014
1731876728128.0,0.0,0.0,-20.0,0.0,0.0,0.0,0.0,0.0,0.0,0.0,0.0,0.0,0.0,0.0,0.0,9.241363525390625,-7.903920650482178,-7.34326171875,0.09460293501615524,0.17234304547309875,-0.009617771953344345,-2052.917236328125,-2677.358642578125,-15876.83984375,744.794189453125,1259.971435546875,-105.95378875732422,44.36688995361328,4.907699108123779,-6.644804954528809
1731876728178.0,0.0,0.0,-20.0,0.0,0.0,0.0,0.0,0.0,0.0,0.0,0.0,0.0,0.0,0.0,0.0,9.446380615234375,-7.508769512176514,-7.29376220703125,0.08780352771282196,0.17605799436569214,-0.0014386149123311043,-2059.00048828125,-2795.56396484375,-15930.08984375,774.862060546875,1314.7899169921875,-1.984859585762024,44.38054275512695,4.625317096710205,-6.602806091308594
1731876728195.0,0.0,0.0,-20.0,0.0,0.0,0.0,0.0,0.0,0.0,0.0,0.0,0.0,0.0,0.0,0.0,9.542877197265625,-7.309513092041016,-7.2618408203125,0.08546766638755798,0.1772087812423706,0.0013129282742738724,-2049.0283203125,-2845.146484375,-16001.8759765625,587.7010498046875,1328.332763671875,-84.16558837890625,43.96723556518555,4.349967956542969,-6.676092624664307
1731876728211.0,0.0,0.0,-20.0,0.0,0.0,0.0,0.0,0.0,0.0,0.0,0.0,0.0,0.0,0.0,0.0,9.6363525390625,-7.109533786773682,-7.22625732421875,0.08312494307756424,0.1783018559217453,0.004044089466333389,-2096.58056640625,-2545.484130859375,-16089.6025390625,612.1828002929688,1246.7847900390625,88.49269104003906,43.88014602661133,4.41074275970459,-6.216134548187256
1731876728228.0,0.0,0.0,-20.0,0.0,0.0,0.0,0.0,0.0,0.0,0.0,0.0,0.0,0.0,0.0,0.0,9.726837158203125,-6.9089035987854,-7.187042236328125,0.0807504653930664,0.1793491393327713,0.006784120574593544,-1969.8748779296875,-2672.55908203125,-16052.9794921875,662.0346069335938,1613.837646484375,105.05200958251953,44.02405548095703,5.2671074867248535,-6.2585320472717285
1731876728245.0,0.0,0.0,-20.0,0.0,0.0,0.0,0.0,0.0,0.0,0.0,0.0,0.0,0.0,0.0,0.0,9.81427001953125,-6.707685947418213,-7.144195556640625,0.0783534049987793,0.18034622073173523,0.00952226109802723,-1925.859375,-2873.521484375,-16112.9345703125,578.9843139648438,1305.40625,95.26958465576172,44.29914474487305,4.820733547210693,-6.204570293426514
1731876728295.0,0.0,0.0,-20.0,0.0,0.0,0.0,0.0,0.0,0.0,0.0,0.0,0.0,0.0,0.0,0.0,9.977020263671875,-6.303271770477295,-7.044525146484375,0.07105147838592529,0.1830279380083084,0.01769774779677391,-1689.85009765625,-2667.10107421875,-16108.1513671875,584.7337646484375,1285.7445068359375,136.2739715576172,44.66888427734375,5.021603584289551,-5.70298957824707
1731876728312.0,0.0,0.0,-20.0,0.0,0.0,0.0,0.0,0.0,0.0,0.0,0.0,0.0,0.0,0.0,0.0,10.05230712890625,-6.100259304046631,-6.98773193359375,0.06858913600444794,0.18381653726100922,0.02040083333849907,-1985.76611328125,-2736.81689453125,-16049.70703125,449.9528503417969,1339.573486328125,155.17999267578125,44.3272590637207,3.926914691925049,-5.25150728225708
1731876728328.0,0.0,0.0,-20.0,0.0,0.0,0.0,0.0,0.0,0.0,0.0,0.0,0.0,0.0,0.0,0.0,10.1246337890625,-5.896972179412842,-6.927490234375,0.06610791385173798,0.18455448746681213,0.023098289966583252,-1695.6297607421875,-2976.87060546875,-16190.498046875,384.3162536621094,1463.85205078125,203.785400390625,44.7711181640625,4.749896049499512,-5.680172443389893
1731876728345.0,0.0,0.0,-20.0,0.0,0.0,0.0,0.0,0.0,0.0,0.0,0.0,0.0,0.0,0.0,0.0,10.193939208984375,-5.693471908569336,-6.863800048828125,0.06357157975435257,0.18525126576423645,0.02582891285419464,-1527.5318603515625,-2786.635986328125,-16196.66015625,366.816162109375,1442.838134765625,174.06350708007812,44.05362319946289,4.9003095626831055,-5.165477752685547
1731876728395.0,0.0,0.0,-20.0,0.0,0.0,0.0,0.0,0.0,0.0,0.0,0.0,0.0,0.0,0.0,0.0,10.320343017578125,-5.285958290100098,-6.722991943359375,0.05592309683561325,0.18701252341270447,0.03390517830848694,-1491.2288818359375,-2946.711669921875,-15993.1533203125,431.65423583984375,993.4856567382812,285.8778076171875,44.208614349365234,4.3212080001831055,-5.109297752380371
1731876728412.0,0.0,0.0,-20.0,0.0,0.0,0.0,0.0,0.0,0.0,0.0,0.0,0.0,0.0,0.0,0.0,10.377471923828125,-5.082123756408691,-6.64593505859375,0.05334775894880295,0.18749436736106873,0.03657284379005432,-1198.5032958984375,-2890.73779296875,-16070.498046875,446.0364074707031,1510.216064453125,292.5644836425781,44.79926300048828,4.259847640991211,-4.337573528289795
1731876728428.0,0.0,0.0,-20.0,0.0,0.0,0.0,0.0,0.0,0.0,0.0,0.0,0.0,0.0,0.0,0.0,10.431640625,-4.878372669219971,-6.56561279296875,0.05074808746576309,0.1879255771636963,0.03924007713794708,-1226.453125,-3056.54150390625,-16221.7548828125,364.6516418457031,1390.9794921875,234.5514373779297,44.742835998535156,4.1173787117004395,-4.686226844787598
1731876728445.0,0.0,0.0,-20.0,0.0,0.0,0.0,0.0,0.0,0.0,0.0,0.0,0.0,0.0,0.0,0.0,10.48284912109375,-4.674764156341553,-6.482025146484375,0.0481724813580513,0.18829911947250366,0.041857630014419556,-1329.486328125,-3024.8779296875,-16150.6943359375,330.5496520996094,1506.102294921875,355.36187744140625,44.74135971069336,4.2068610191345215,-4.354172229766846
1731876728495.0,0.0,0.0,-20.0,0.0,0.0,0.0,0.0,0.0,0.0,0.0,0.0,0.0,0.0,0.0,0.0,10.573150634765625,-4.26844596862793,-6.30218505859375,0.04024390131235123,0.18912190198898315,0.049763232469558716,-1133.3170166015625,-2854.681396484375,-16035.5595703125,259.5661926269531,1550.2974853515625,402.5047607421875,44.416194915771484,3.8268120288848877,-3.826695442199707
1731876728512.0,0.0,0.0,-20.0,0.0,0.0,0.0,0.0,0.0,0.0,0.0,0.0,0.0,0.0,0.0,0.0,10.612274169921875,-4.065903663635254,-6.2060546875,0.03761968016624451,0.1892879456281662,0.052330419421195984,-1077.02392578125,-3098.91455078125,-16121.1455078125,225.93829345703125,1128.326904296875,494.099609375,44.842620849609375,4.711793899536133,-3.7704074382781982
1731876728528.0,0.0,0.0,-20.0,0.0,0.0,0.0,0.0,0.0,0.0,0.0,0.0,0.0,0.0,0.0,0.0,10.648529052734375,-3.8637807369232178,-6.10687255859375,0.034946151077747345,0.1894039362668991,0.05492110177874565,-1059.6279296875,-2851.1875,-16048.7138671875,199.29945373535156,1398.3326416015625,333.80291748046875,44.736637115478516,4.733212947845459,-3.871603012084961
1731876728545.0,0.0,0.0,-20.0,0.0,0.0,0.0,0.0,0.0,0.0,0.0,0.0,0.0,0.0,0.0,0.0,10.681884765625,-3.6621365547180176,-6.004638671875,0.03225303441286087,0.18946704268455505,0.057505812495946884,-957.9530029296875,-2919.513671875,-16026.3076171875,226.39830017089844,1216.7237548828125,366.5538330078125,44.57032775878906,4.432906627655029,-3.4313015937805176
1731876728595.0,0.0,0.0,-20.0,0.0,0.0,0.0,0.0,0.0,0.0,0.0,0.0,0.0,0.0,0.0,0.0,10.736602783203125,-3.261087417602539,-5.788330078125,0.0242310781031847,0.18934103846549988,0.06505881994962692,-929.456298828125,-3037.31591796875,-15994.291015625,205.62158203125,1390.870361328125,677.763916015625,44.697147369384766,3.5087461471557617,-3.3277924060821533
1731876728612.0,0.0,0.0,-20.0,0.0,0.0,0.0,0.0,0.0,0.0,0.0,0.0,0.0,0.0,0.0,0.0,10.758087158203125,-3.0618269443511963,-5.674468994140625,0.021486608311533928,0.18919157981872559,0.06759336590766907,-969.614990234375,-3211.33154296875,-15999.5673828125,203.82025146484375,1086.25439453125,323.3571472167969,44.58589553833008,4.172469139099121,-3.505223512649536
1731876728628.0,0.0,0.0,-20.0,0.0,0.0,0.0,0.0,0.0,0.0,0.0,0.0,0.0,0.0,0.0,0.0,10.77667236328125,-2.863316774368286,-5.557708740234375,0.01880558207631111,0.18899382650852203,0.07004529237747192,-915.5615844726562,-2984.374755859375,-16001.5478515625,122.8895034790039,1371.214599609375,522.4388427734375,44.64828109741211,4.166593551635742,-3.4728236198425293
