ts,linPos_x,linPos_y,linPos_z,linVel_x,linVel_y,linVel_z,linAcc_x,linAcc_y,linAcc_z,force_x,force_y,force_z,torque_x,torque_y,torque_z,euler_x,euler_y,euler_z,angVel_x,angVel_y,angVel_z,accelerometer_x,accelerometer_y,accelerometer_z,gyroscope_x,gyroscope_y,gyroscope_z,magnetometer_x,magnetometer_y,magnetometer_z
1731876090925.0,0.0,0.0,-20.0,0.0,0.0,0.0,0.0,0.0,0.0,0.0,0.0,0.0,0.0,0.0,0.0,0.0,0.0,0.0,0.0,0.0,0.0,0.0,0.0,-16384.0,0.0,0.0,0.0,45.0,0.0,0.0
1731876090925.0,0.0,0.0,-20.0,0.0,0.0,0.0,0.0,0.0,0.0,0.0,0.0,0.0,0.0,0.0,0.0,0.0,0.0,0.0,0.0,0.0,0.0,0.0,0.0,-16384.0,0.0,0.0,0.0,45.0,0.0,0.0
1731876090975.0,0.0,0.0,-20.0,0.0,0.0,0.0,0.0,0.0,0.0,0.0,0.0,0.0,0.0,0.0,0.0,0.0,0.0,0.0,0.0,0.0,0.0,0.0,0.0,-16384.0,0.0,0.0,0.0,45.0,0.0,0.0
1731876090992.0,0.0,0.0,-20.0,0.0,0.0,0.0,0.0,0.0,0.0,0.0,0.0,0.0,0.0,0.0,0.0,0.0,0.0,0.0,0.0,0.0,0.0,0.0,0.0,-16384.0,0.0,0.0,0.0,45.0,0.0,0.0
1731876091009.0,0.0,0.0,-20.0,0.0,0.0,0.0,0.0,0.0,0.0,0.0,0.0,0.0,0.0,0.0,0.0,0.0,0.0,0.0,0.0,0.0,0.0,0.0,0.0,-16384.0,0.0,0.0,0.0,45.0,0.0,0.0
1731876091025.0,0.0,0.0,-20.0,0.0,0.0,0.0,0.0,0.0,0.0,0.0,0.0,0.0,0.0,0.0,0.0,0.0,0.0,0.0,0.0,0.0,0.0,0.0,0.0,-16384.0,0.0,0.0,0.0,45.0,0.0,0.0
1731876091042.0,0.0,0.0,-20.0,0.0,0.0,0.0,0.0,0.0,0.0,0.0,0.0,0.0,0.0,0.0,0.0,0.0,0.0,0.0,0.0,0.0,0.0,0.0,0.0,-16384.0,0.0,0.0,0.0,45.0,0.0,0.0
1731876091092.0,0.0,0.0,-20.0,0.0,0.0,0.0,0.0,0.0,0.0,0.0,0.0,0.0,0.0,0.0,0.0,0.0,0.0,0.0,0.0,0.0,0.0,0.0,0.0,-16384.0,0.0,0.0,0.0,45.0,0.0,0.0
1731876091108.0,0.0,0.0,-20.0,0.0,0.0,0.0,0.0,0.0,0.0,0.0,0.0,0.0,0.0,0.0,0.0,0.0,0.0,0.0,0.0,0.0,0.0,0.0,0.0,-16384.0,0.0,0.0,0.0,45.0,0.0,0.0
1731876091125.0,0.0,0.0,-20.0,0.0,0.0,0.0,0.0,0.0,0.0,0.0,0.0,0.0,0.0,0.0,0.0,0.0,0.0,0.0,0.0,0.0,0.0,0.0,0.0,-16384.0,0.0,0.0,0.0,45.0,0.0,0.0
1731876091142.0,0.0,0.0,-20.0,0.0,0.0,0.0,0.0,0.0,0.0,0.0,0.0,0.0,0.0,0.0,0.0,0.0,0.0,0.0,0.0,0.0,0.0,0.0,0.0,-16384.0,0.0,0.0,0.0,45.0,0.0,0.0
1731876091175.0,0.0,0.0,-20.0,0.0,0.0,0.0,0.0,0.0,0.0,0.0,0.0,0.0,0.0,0.0,0.0,0.0,0.0,0.0,0.0,0.0,0.0,0.0,0.0,-16384.0,0.0,0.0,0.0,45.0,0.0,0.0
1731876091209.0,0.0,0.0,-20.0,0.0,0.0,0.0,0.0,0.0,0.0,0.0,0.0,0.0,0.0,0.0,0.0,0.0,0.0,0.0,0.0,0.0,0.0,0.0,0.0,-16384.0,0.0,0.0,0.0,45.0,0.0,0.0
1731876091225.0,0.0,0.0,-20.0,0.0,0.0,0.0,0.0,0.0,0.0,0.0,0.0,0.0,0.0,0.0,0.0,0.0,0.0,0.0,0.0,0.0,0.0,0.0,0.0,-16384.0,0.0,0.0,0.0,45.0,0.0,0.0
1731876091242.0,0.0,0.0,-20.0,0.0,0.0,0.0,0.0,0.0,0.0,0.0,0.0,0.0,0.0,0.0,0.0,0.0,0.0,0.0,0.0,0.0,0.0,0.0,0.0,-16384.0,0.0,0.0,0.0,45.0,0.0,0.0
1731876091275.0,0.0,0.0,-20.0,0.0,0.0,0.0,0.0,0.0,0.0,0.0,0.0,0.0,0.0,0.0,0.0,0.0,0.0,0.0,0.0,0.0,0.0,0.0,0.0,-16384.0,0.0,0.0,0.0,45.0,0.0,0.0
1731876091292.0,0.0,0.0,-20.0,0.0,0.0,0.0,0.0,0.0,0.0,0.0,0.0,0.0,0.0,0.0,0.0,0.0,0.0,0.0,0.0,0.0,0.0,0.0,0.0,-16384.0,0.0,0.0,0.0,45.0,0.0,0.0
1731876091325.0,0.0,0.0,-20.0,0.0,0.0,0.0,0.0,0.0,0.0,0.0,0.0,0.0,0.0,0.0,0.0,0.0,0.0,0.0,0.0,0.0,0.0,0.0,0.0,-16384.0,0.0,0.0,0.0,45.0,0.0,0.0
1731876091325.0,0.0,0.0,-20.0,0.0,0.0,0.0,0.0,0.0,0.0,0.0,0.0,0.0,0.0,0.0,0.0,0.0,0.0,0.0,0.0,0.0,0.0,0.0,0.0,-16384.0,0.0,0.0,0.0,45.0,0.0,0.0
1731876091375.0,0.0,0.0,-20.0,0.0,0.0,0.0,0.0,0.0,0.0,0.0,0.0,0.0,0.0,0.0,0.0,0.0,0.0,0.0,0.0,0.0,0.0,0.0,0.0,-16384.0,0.0,0.0,0.0,45.0,0.0,0.0
1731876091392.0,0.0,0.0,-20.0,0.0,0.0,0.0,0.0,0.0,0.0,0.0,0.0,0.0,0.0,0.0,0.0,0.0,0.0,0.0,0.0,0.0,0.0,0.0,0.0,-16384.0,0.0,0.0,0.0,45.0,0.0,0.0
1731876091425.0,0.0,0.0,-20.0,0.0,0.0,0.0,0.0,0.0,0.0,0.0,0.0,0.0,0.0,0.0,0.0,0.0,0.0,0.0,0.0,0.0,0.0,0.0,0.0,-16384.0,0.0,0.0,0.0,45.0,0.0,0.0
1731876091425.0,0.0,0.0,-20.0,0.0,0.0,0.0,0.0,0.0,0.0,0.0,0.0,0.0,0.0,0.0,0.0,0.0,0.0,0.0,0.0,0.0,0.0,0.0,0.0,-16384.0,0.0,0.0,0.0,45.0,0.0,0.0
1731876091475.0,0.0,0.0,-20.0,0.0,0.0,0.0,0.0,0.0,0.0,0.0,0.0,0.0,0.0,0.0,0.0,0.0,0.0,0.0,0.0,0.0,0.0,0.0,0.0,-16384.0,0.0,0.0,0.0,45.0,0.0,0.0
1731876091492.0,0.0,0.0,-20.0,0.0,0.0,0.0,0.0,0.0,0.0,0.0,0.0,0.0,0.0,0.0,0.0,0.0,0.0,0.0,0.0,0.0,0.0,0.0,0.0,-16384.0,0.0,0.0,0.0,45.0,0.0,0.0
1731876091509.0,0.0,0.0,-20.0,0.0,0.0,0.0,0.0,0.0,0.0,0.0,0.0,0.0,0.0,0.0,0.0,0.0,0.0,0.0,0.0,0.0,0.0,0.0,0.0,-16384.0,0.0,0.0,0.0,45.0,0.0,0.0
1731876091525.0,0.0,0.0,-20.0,0.0,0.0,0.0,0.0,0.0,0.0,0.0,0.0,0.0,0.0,0.0,0.0,0.0,0.0,0.0,0.0,0.0,0.0,0.0,0.0,-16384.0,0.0,0.0,0.0,45.0,0.0,0.0
1731876091542.0,0.0,0.0,-20.0,0.0,0.0,0.0,0.0,0.0,0.0,0.0,0.0,0.0,0.0,0.0,0.0,0.0,0.0,0.0,0.0,0.0,0.0,0.0,0.0,-16384.0,0.0,0.0,0.0,45.0,0.0,0.0
1731876091592.0,0.0,0.0,-20.0,0.0,0.0,0.0,0.0,0.0,0.0,0.0,0.0,0.0,0.0,0.0,0.0,0.0,0.0,0.0,0.0,0.0,0.0,0.0,0.0,-16384.0,0.0,0.0,0.0,45.0,0.0,0.0
1731876091609.0,0.0,0.0,-20.0,0.0,0.0,0.0,0.0,0.0,0.0,0.0,0.0,0.0,0.0,0.0,0.0,0.0,0.0,0.0,0.0,0.0,0.0,0.0,0.0,-16384.0,0.0,0.0,0.0,45.0,0.0,0.0
1731876091625.0,0.0,0.0,-20.0,0.0,0.0,0.0,0.0,0.0,0.0,0.0,0.0,0.0,0.0,0.0,0.0,0.0,0.0,0.0,0.0,0.0,0.0,0.0,0.0,-16384.0,0.0,0.0,0.0,45.0,0.0,0.0
1731876091642.0,0.0,0.0,-20.0,0.0,0.0,0.0,0.0,0.0,0.0,0.0,0.0,0.0,0.0,0.0,0.0,0.0,0.0,0.0,0.0,0.0,0.0,0.0,0.0,-16384.0,0.0,0.0,0.0,45.0,0.0,0.0
1731876091675.0,0.0,0.0,-20.0,0.0,0.0,0.0,0.0,0.0,0.0,0.0,0.0,0.0,0.0,0.0,0.0,0.0,0.0,0.0,0.0,0.0,0.0,0.0,0.0,-16384.0,0.0,0.0,0.0,45.0,0.0,0.0
1731876091709.0,0.0,0.0,-20.0,0.0,0.0,0.0,0.0,0.0,0.0,0.0,0.0,0.0,0.0,0.0,0.0,0.0,0.0,0.0,0.0,0.0,0.0,0.0,0.0,-16384.0,0.0,0.0,0.0,45.0,0.0,0.0
1731876091726.0,0.0,0.0,-20.0,0.0,0.0,0.0,0.0,0.0,0.0,0.0,0.0,0.0,0.0,0.0,0.0,0.0,0.0,0.0,0.0,0.0,0.0,0.0,0.0,-16384.0,0.0,0.0,0.0,45.0,0.0,0.0
1731876091726.0,0.0,0.0,-20.0,0.0,0.0,0.0,0.0,0.0,0.0,0.0,0.0,0.0,0.0,0.0,0.0,0.0,0.0,0.0,0.0,0.0,0.0,0.0,0.0,-16384.0,0.0,0.0,0.0,45.0,0.0,0.0
1731876091776.0,0.0,0.0,-20.0,0.0,0.0,0.0,0.0,0.0,0.0,0.0,0.0,0.0,0.0,0.0,0.0,0.0,0.0,0.0,0.0,0.0,0.0,0.0,0.0,-16384.0,0.0,0.0,0.0,45.0,0.0,0.0
1731876091792.0,0.0,0.0,-20.0,0.0,0.0,0.0,0.0,0.0,0.0,0.0,0.0,0.0,0.0,0.0,0.0,0.0,0.0,0.0,0.0,0.0,0.0,0.0,0.0,-16384.0,0.0,0.0,0.0,45.0,0.0,0.0
1731876091826.0,0.0,0.0,-20.0,0.0,0.0,0.0,0.0,0.0,0.0,0.0,0.0,0.0,0.0,0.0,0.0,0.0,0.0,0.0,0.0,0.0,0.0,0.0,0.0,-16384.0,0.0,0.0,0.0,45.0,0.0,0.0
1731876091826.0,0.0,0.0,-20.0,0.0,0.0,0.0,0.0,0.0,0.0,0.0,0.0,0.0,0.0,0.0,0.0,0.0,0.0,0.0,0.0,0.0,0.0,0.0,0.0,-16384.0,0.0,0.0,0.0,45.0,0.0,0.0
1731876091876.0,0.0,0.0,-20.0,0.0,0.0,0.0,0.0,0.0,0.0,0.0,0.0,0.0,0.0,0.0,0.0,0.0,0.0,0.0,0.0,0.0,0.0,0.0,0.0,-16384.0,0.0,0.0,0.0,45.0,0.0,0.0
1731876091892.0,0.0,0.0,-20.0,0.0,0.0,0.0,0.0,0.0,0.0,0.0,0.0,0.0,0.0,0.0,0.0,0.0,0.0,0.0,0.0,0.0,0.0,0.0,0.0,-16384.0,0.0,0.0,0.0,45.0,0.0,0.0
1731876091926.0,0.0,0.0,-20.0,0.0,0.0,0.0,0.0,0.0,0.0,0.0,0.0,0.0,0.0,0.0,0.0,0.0,0.0,0.0,0.0,0.0,0.0,0.0,0.0,-16384.0,0.0,0.0,0.0,45.0,0.0,0.0
1731876091943.0,0.0,0.0,-20.0,0.0,0.0,0.0,0.0,0.0,0.0,0.0,0.0,0.0,0.0,0.0,0.0,0.0,0.0,0.0,0.0,0.0,0.0,0.0,0.0,-16384.0,0.0,0.0,0.0,45.0,0.0,0.0
1731876091959.0,0.0,0.0,-20.0,0.0,0.0,0.0,0.0,0.0,0.0,0.0,0.0,0.0,0.0,0.0,0.0,0.0,0.0,0.0,0.0,0.0,0.0,0.0,0.0,-16384.0,0.0,0.0,0.0,45.0,0.0,0.0
1731876091993.0,0.0,0.0,-20.0,0.0,0.0,0.0,0.0,0.0,0.0,0.0,0.0,0.0,0.0,0.0,0.0,0.0,0.0,0.0,0.0,0.0,0.0,0.0,0.0,-16384.0,0.0,0.0,0.0,45.0,0.0,0.0
1731876092009.0,0.0,0.0,-20.0,0.0,0.0,0.0,0.0,0.0,0.0,0.0,0.0,0.0,0.0,0.0,0.0,0.0,0.0,0.0,0.0,0.0,0.0,0.0,0.0,-16384.0,0.0,0.0,0.0,45.0,0.0,0.0
1731876092043.0,0.0,0.0,-20.0,0.0,0.0,0.0,0.0,0.0,0.0,0.0,0.0,0.0,0.0,0.0,0.0,0.0,0.0,0.0,0.0,0.0,0.0,0.0,0.0,-16384.0,0.0,0.0,0.0,45.0,0.0,0.0
1731876092043.0,0.0,0.0,-20.0,0.0,0.0,0.0,0.0,0.0,0.0,0.0,0.0,0.0,0.0,0.0,0.0,0.0,0.0,0.0,0.0,0.0,0.0,0.0,0.0,-16384.0,0.0,0.0,0.0,45.0,0.0,0.0
1731876092093.0,0.0,0.0,-20.0,0.0,0.0,0.0,0.0,0.0,0.0,0.0,0.0,0.0,0.0,0.0,0.0,0.0,0.0,0.0,0.0,0.0,0.0,0.0,0.0,-16384.0,0.0,0.0,0.0,45.0,0.0,0.0
1731876092109.0,0.0,0.0,-20.0,0.0,0.0,0.0,0.0,0.0,0.0,0.0,0.0,0.0,0.0,0.0,0.0,0.0,0.0,0.0,0.0,0.0,0.0,0.0,0.0,-16384.0,0.0,0.0,0.0,45.0,0.0,0.0
1731876092143.0,0.0,0.0,-20.0,0.0,0.0,0.0,0.0,0.0,0.0,0.0,0.0,0.0,0.0,0.0,0.0,0.0,0.0,0.0,0.0,0.0,0.0,0.0,0.0,-16384.0,0.0,0.0,0.0,45.0,0.0,0.0
1731876092143.0,0.0,0.0,-20.0,0.0,0.0,0.0,0.0,0.0,0.0,0.0,0.0,0.0,0.0,0.0,0.0,0.0,0.0,0.0,0.0,0.0,0.0,0.0,0.0,-16384.0,0.0,0.0,0.0,45.0,0.0,0.0
1731876092193.0,0.0,0.0,-20.0,0.0,0.0,0.0,0.0,0.0,0.0,0.0,0.0,0.0,0.0,0.0,0.0,0.0,0.0,0.0,0.0,0.0,0.0,0.0,0.0,-16384.0,0.0,0.0,0.0,45.0,0.0,0.0
1731876092209.0,0.0,0.0,-20.0,0.0,0.0,0.0,0.0,0.0,0.0,0.0,0.0,0.0,0.0,0.0,0.0,0.0,0.0,0.0,0.0,0.0,0.0,0.0,0.0,-16384.0,0.0,0.0,0.0,45.0,0.0,0.0
1731876092244.0,0.0,0.0,-20.0,0.0,0.0,0.0,0.0,0.0,0.0,0.0,0.0,0.0,0.0,0.0,0.0,0.0,0.0,0.0,0.0,0.0,0.0,0.0,0.0,-16384.0,0.0,0.0,0.0,45.0,0.0,0.0
1731876092244.0,0.0,0.0,-20.0,0.0,0.0,0.0,0.0,0.0,0.0,0.0,0.0,0.0,0.0,0.0,0.0,0.0,0.0,0.0,0.0,0.0,0.0,0.0,0.0,-16384.0,0.0,0.0,0.0,45.0,0.0,0.0
1731876092260.0,0.0,0.0,-20.0,0.0,0.0,0.0,0.0,0.0,0.0,0.0,0.0,0.0,0.0,0.0,0.0,0.0,0.0,0.0,0.0,0.0,0.0,0.0,0.0,-16384.0,0.0,0.0,0.0,45.0,0.0,0.0
1731876092310.0,0.0,0.0,-20.0,0.0,0.0,0.0,0.0,0.0,0.0,0.0,0.0,0.0,0.0,0.0,0.0,0.0,0.0,0.0,-0.03191662207245827,0.0,0.0,0.0,0.0,-16384.0,-239.68975830078125,0.0,0.0,45.0,0.0,0.0
1731876092327.0,0.0,0.0,-20.0,0.0,0.0,0.0,0.0,0.0,0.0,0.0,0.0,0.0,0.0,0.0,0.0,-0.03657376021146774,0.0,0.0,-0.02339310012757778,0.0,0.0,0.0,10.458439826965332,-16383.9970703125,-175.67919921875,0.0,0.0,45.0,0.0,0.0
1731876092344.0,0.0,0.0,-20.0,0.0,0.0,0.0,0.0,0.0,0.0,0.0,0.0,0.0,0.0,0.0,0.0,-0.06338027119636536,0.0,0.0,-0.014871662482619286,0.0,0.0,0.0,18.123886108398438,-16383.990234375,-111.68428802490234,0.0,0.0,45.0,0.0,0.0
1731876092360.0,0.0,0.0,-20.0,0.0,0.0,0.0,0.0,0.0,0.0,0.0,0.0,0.0,0.0,0.0,0.0,-0.08042194694280624,0.0,0.0,-0.006360508967190981,0.0,0.0,0.0,22.99703025817871,-16383.984375,-47.76660919189453,0.0,0.0,45.0,0.0,0.0
1731876092410.0,0.0,0.0,-20.0,0.0,0.0,0.0,0.0,0.0,0.0,0.0,0.0,0.0,0.0,0.0,0.0,-0.04643089324235916,0.0,0.0,0.06978967785835266,0.0,0.0,0.0,13.27713394165039,-16383.9931640625,524.111572265625,0.0,0.0,45.0,0.0,0.0
1731876092427.0,0.0,0.0,-20.0,0.0,0.0,0.0,0.0,0.0,0.0,0.0,0.0,0.0,0.0,0.0,0.0,0.033538818359375,0.0,0.0,0.07808161526918411,0.0,0.0,0.0,-9.590583801269531,-16383.9970703125,586.3829345703125,0.0,0.0,45.0,0.0,0.0
1731876092444.0,0.0,0.0,-20.0,0.0,0.0,0.0,0.0,0.0,0.0,0.0,0.0,0.0,0.0,0.0,0.0,0.123016357421875,0.0,0.0,0.08631744980812073,0.0,0.0,0.0,-35.177085876464844,-16383.9619140625,648.2330322265625,0.0,0.0,45.0,0.0,0.0
1731876092460.0,0.0,0.0,-20.0,0.0,0.0,0.0,0.0,0.0,0.0,0.0,0.0,0.0,0.0,0.0,0.0,0.221923828125,0.0,0.0,0.11967853456735611,0.0,0.0,0.0,-63.46001052856445,-16383.876953125,898.7705078125,0.0,0.0,45.0,0.0,0.0
1731876092494.0,0.0,0.0,-20.0,0.0,0.0,0.0,0.0,0.0,0.0,0.0,0.0,0.0,0.0,0.0,0.0,0.35906982421875,0.0,0.0,0.14397470653057098,0.0,0.0,0.0,-102.67705535888672,-16383.6787109375,1081.231689453125,0.0,0.0,45.0,0.0,0.0
1731876092527.0,0.0,0.0,-20.0,0.0,0.0,0.0,0.0,0.0,0.0,0.0,0.0,0.0,0.0,0.0,0.0,0.697998046875,0.0,0.0,0.16777773201465607,0.0,0.0,0.0,-199.59091186523438,-16382.78515625,1259.9893798828125,0.0,0.0,45.0,0.0,0.0
1731876092544.0,0.0,0.0,-20.0,0.0,0.0,0.0,0.0,0.0,0.0,0.0,0.0,0.0,0.0,0.0,0.0,0.8902587890625,0.0,0.0,0.1753343939781189,0.0,0.0,0.0,-254.56350708007812,-16382.021484375,1316.7388916015625,0.0,0.0,45.0,0.0,0.0
1731876092560.0,0.0,0.0,-20.0,0.0,0.0,0.0,0.0,0.0,0.0,0.0,0.0,0.0,0.0,0.0,0.0,1.091156005859375,0.0,0.0,0.1910271793603897,0.0,0.0,0.0,-312.00238037109375,-16381.029296875,1434.5897216796875,0.0,0.0,45.0,0.0,0.0
1731876092594.0,0.0,0.0,-20.0,0.0,0.0,0.0,0.0,0.0,0.0,0.0,0.0,0.0,0.0,0.0,0.0,1.31005859375,0.0,0.0,0.205428346991539,0.0,0.0,0.0,-374.5848388671875,-16379.716796875,1542.7406005859375,0.0,0.0,45.0,0.0,0.0
1731876092609.0,0.0,0.0,-20.0,0.0,0.0,0.0,0.0,0.0,0.0,0.0,0.0,0.0,0.0,0.0,0.0,1.54547119140625,0.0,0.0,0.21250185370445251,0.0,0.0,0.0,-441.88128662109375,-16378.0400390625,1595.86181640625,0.0,0.0,45.0,0.0,0.0
1731876092644.0,0.0,0.0,-20.0,0.0,0.0,0.0,0.0,0.0,0.0,0.0,0.0,0.0,0.0,0.0,0.0,2.03106689453125,0.0,0.0,0.21800415217876434,0.0,0.0,0.0,-580.6715698242188,-16373.7080078125,1637.183349609375,0.0,0.0,45.0,0.0,0.0
1731876092644.0,0.0,0.0,-20.0,0.0,0.0,0.0,0.0,0.0,0.0,0.0,0.0,0.0,0.0,0.0,0.0,2.03106689453125,0.0,0.0,0.21800415217876434,0.0,0.0,0.0,-580.6715698242188,-16373.7080078125,1637.183349609375,0.0,0.0,45.0,0.0,0.0
1731876092660.0,0.0,0.0,-20.0,0.0,0.0,0.0,0.0,0.0,0.0,0.0,0.0,0.0,0.0,0.0,0.0,2.280853271484375,0.0,0.0,0.22463013231754303,0.0,0.0,0.0,-652.048583984375,-16371.0185546875,1686.943603515625,0.0,0.0,45.0,0.0,0.0
1731876092710.0,0.0,0.0,-20.0,0.0,0.0,0.0,0.0,0.0,0.0,0.0,0.0,0.0,0.0,0.0,0.0,2.81024169921875,0.0,0.0,0.23557062447071075,0.0,0.0,0.0,-803.2798461914062,-16364.2978515625,1769.1053466796875,0.0,0.0,45.0,0.0,0.0
1731876092727.0,0.0,0.0,-20.0,0.0,0.0,0.0,0.0,0.0,0.0,0.0,0.0,0.0,0.0,0.0,0.0,3.0802001953125,0.0,0.0,0.24930046498775482,0.0,0.0,0.0,-880.3737182617188,-16360.330078125,1872.214599609375,0.0,0.0,45.0,0.0,0.0
1731876092744.0,0.0,0.0,-20.0,0.0,0.0,0.0,0.0,0.0,0.0,0.0,0.0,0.0,0.0,0.0,0.0,3.365875244140625,0.0,0.0,0.25492557883262634,0.0,0.0,0.0,-961.9345092773438,-16355.73828125,1914.45849609375,0.0,0.0,45.0,0.0,0.0
1731876092760.0,0.0,0.0,-20.0,0.0,0.0,0.0,0.0,0.0,0.0,0.0,0.0,0.0,0.0,0.0,0.0,3.657989501953125,0.0,0.0,0.26048848032951355,0.0,0.0,0.0,-1045.3089599609375,-16350.6201171875,1956.2352294921875,0.0,0.0,45.0,0.0,0.0
1731876092794.0,0.0,0.0,-20.0,0.0,0.0,0.0,0.0,0.0,0.0,0.0,0.0,0.0,0.0,0.0,0.0,3.95648193359375,0.0,0.0,0.2709370255470276,0.0,0.0,0.0,-1130.4759521484375,-16344.953125,2034.7025146484375,0.0,0.0,45.0,0.0,0.0
1731876092827.0,0.0,0.0,-20.0,0.0,0.0,0.0,0.0,0.0,0.0,0.0,0.0,0.0,0.0,0.0,0.0,4.574554443359375,0.0,0.0,0.27319613099098206,0.0,0.0,0.0,-1306.726318359375,-16331.806640625,2051.66796875,0.0,0.0,45.0,0.0,0.0
1731876092844.0,0.0,0.0,-20.0,0.0,0.0,0.0,0.0,0.0,0.0,0.0,0.0,0.0,0.0,0.0,0.0,4.887603759765625,0.0,0.0,0.2777070999145508,0.0,0.0,0.0,-1395.9390869140625,-16324.423828125,2085.544921875,0.0,0.0,45.0,0.0,0.0
1731876092861.0,0.0,0.0,-20.0,0.0,0.0,0.0,0.0,0.0,0.0,0.0,0.0,0.0,0.0,0.0,0.0,5.205841064453125,0.0,0.0,0.2819402813911438,0.0,0.0,0.0,-1486.587646484375,-16316.4189453125,2117.33544921875,0.0,0.0,45.0,0.0,0.0
1731876092893.0,0.0,0.0,-20.0,0.0,0.0,0.0,0.0,0.0,0.0,0.0,0.0,0.0,0.0,0.0,0.0,5.5289306640625,0.0,0.0,0.2829885482788086,0.0,0.0,0.0,-1578.5714111328125,-16307.7763671875,2125.207763671875,0.0,0.0,45.0,0.0,0.0
1731876092927.0,0.0,0.0,-20.0,0.0,0.0,0.0,0.0,0.0,0.0,0.0,0.0,0.0,0.0,0.0,0.0,6.173614501953125,0.0,0.0,0.28326088190078735,0.0,0.0,0.0,-1761.9603271484375,-16288.982421875,2127.2529296875,0.0,0.0,45.0,0.0,0.0
1731876092943.0,0.0,0.0,-20.0,0.0,0.0,0.0,0.0,0.0,0.0,0.0,0.0,0.0,0.0,0.0,0.0,6.498199462890625,0.0,0.0,0.2797083854675293,0.0,0.0,0.0,-1854.2098388671875,-16278.7392578125,2100.57421875,0.0,0.0,45.0,0.0,0.0
1731876092943.0,0.0,0.0,-20.0,0.0,0.0,0.0,0.0,0.0,0.0,0.0,0.0,0.0,0.0,0.0,0.0,6.498199462890625,0.0,0.0,0.2797083854675293,0.0,0.0,0.0,-1854.2098388671875,-16278.7392578125,2100.57421875,0.0,0.0,45.0,0.0,0.0
1731876092993.0,0.0,0.0,-20.0,0.0,0.0,0.0,0.0,0.0,0.0,0.0,0.0,0.0,0.0,0.0,0.0,7.135162353515625,0.0,0.0,0.2687618136405945,0.0,0.0,0.0,-2035.06396484375,-16257.1201171875,2018.366943359375,0.0,0.0,45.0,0.0,0.0
1731876093010.0,0.0,0.0,-20.0,0.0,0.0,0.0,0.0,0.0,0.0,0.0,0.0,0.0,0.0,0.0,0.0,7.443145751953125,0.0,0.0,0.2650402784347534,0.0,0.0,0.0,-2122.42138671875,-16245.9453125,1990.4185791015625,0.0,0.0,45.0,0.0,0.0
1731876093027.0,0.0,0.0,-20.0,0.0,0.0,0.0,0.0,0.0,0.0,0.0,0.0,0.0,0.0,0.0,0.0,7.746856689453125,0.0,0.0,0.2610835134983063,0.0,0.0,0.0,-2208.507080078125,-16234.46875,1960.703857421875,0.0,0.0,45.0,0.0,0.0
1731876093043.0,0.0,0.0,-20.0,0.0,0.0,0.0,0.0,0.0,0.0,0.0,0.0,0.0,0.0,0.0,0.0,8.0460205078125,0.0,0.0,0.257168173789978,0.0,0.0,0.0,-2293.2431640625,-16222.71484375,1931.3001708984375,0.0,0.0,45.0,0.0,0.0
1731876093060.0,0.0,0.0,-20.0,0.0,0.0,0.0,0.0,0.0,0.0,0.0,0.0,0.0,0.0,0.0,0.0,8.340728759765625,0.0,0.0,0.25304147601127625,0.0,0.0,0.0,-2376.656005859375,-16210.7060546875,1900.3092041015625,0.0,0.0,45.0,0.0,0.0
1731876093110.0,0.0,0.0,-20.0,0.0,0.0,0.0,0.0,0.0,0.0,0.0,0.0,0.0,0.0,0.0,0.0,8.91119384765625,0.0,0.0,0.24062155187129974,0.0,0.0,0.0,-2537.9375,-16186.2392578125,1807.037109375,0.0,0.0,45.0,0.0,0.0
1731876093127.0,0.0,0.0,-20.0,0.0,0.0,0.0,0.0,0.0,0.0,0.0,0.0,0.0,0.0,0.0,0.0,9.186920166015625,0.0,0.0,0.23626066744327545,0.0,0.0,0.0,-2615.80126953125,-16173.837890625,1774.2874755859375,0.0,0.0,45.0,0.0,0.0
1731876093143.0,0.0,0.0,-20.0,0.0,0.0,0.0,0.0,0.0,0.0,0.0,0.0,0.0,0.0,0.0,0.0,9.457672119140625,0.0,0.0,0.23196910321712494,0.0,0.0,0.0,-2692.201416015625,-16161.296875,1742.058349609375,0.0,0.0,45.0,0.0,0.0
1731876093160.0,0.0,0.0,-20.0,0.0,0.0,0.0,0.0,0.0,0.0,0.0,0.0,0.0,0.0,0.0,0.0,9.723480224609375,0.0,0.0,0.22750909626483917,0.0,0.0,0.0,-2767.148193359375,-16148.6328125,1708.564208984375,0.0,0.0,45.0,0.0,0.0
1731876093193.0,0.0,0.0,-20.0,0.0,0.0,0.0,0.0,0.0,0.0,0.0,0.0,0.0,0.0,0.0,0.0,9.98419189453125,0.0,0.0,0.21846522390842438,0.0,0.0,0.0,-2840.599853515625,-16135.875,1640.6458740234375,0.0,0.0,45.0,0.0,0.0
1731876093227.0,0.0,0.0,-20.0,0.0,0.0,0.0,0.0,0.0,0.0,0.0,0.0,0.0,0.0,0.0,0.0,10.47943115234375,0.0,0.0,0.20916153490543365,0.0,0.0,0.0,-2979.96337890625,-16110.71875,1570.7763671875,0.0,0.0,45.0,0.0,0.0
1731876093244.0,0.0,0.0,-20.0,0.0,0.0,0.0,0.0,0.0,0.0,0.0,0.0,0.0,0.0,0.0,0.0,10.7191162109375,0.0,0.0,0.20430824160575867,0.0,0.0,0.0,-3047.333251953125,-16098.1123046875,1534.328857421875,0.0,0.0,45.0,0.0,0.0
1731876093244.0,0.0,0.0,-20.0,0.0,0.0,0.0,0.0,0.0,0.0,0.0,0.0,0.0,0.0,0.0,0.0,10.7191162109375,0.0,0.0,0.20430824160575867,0.0,0.0,0.0,-3047.333251953125,-16098.1123046875,1534.328857421875,0.0,0.0,45.0,0.0,0.0
1731876093294.0,0.0,0.0,-20.0,0.0,0.0,0.0,0.0,0.0,0.0,0.0,0.0,0.0,0.0,0.0,0.0,11.18194580078125,0.0,0.0,0.18976619839668274,0.0,0.0,0.0,-3177.271240234375,-16072.9716796875,1425.119873046875,0.0,0.0,45.0,0.0,0.0
1731876093311.0,0.0,0.0,-20.0,0.0,0.0,0.0,0.0,0.0,0.0,0.0,0.0,0.0,0.0,0.0,0.0,11.3994140625,0.0,0.0,0.18474163115024567,0.0,0.0,0.0,-3238.253662109375,-16060.796875,1387.3861083984375,0.0,0.0,45.0,0.0,0.0
1731876093344.0,0.0,0.0,-20.0,0.0,0.0,0.0,0.0,0.0,0.0,0.0,0.0,0.0,0.0,0.0,0.0,11.81707763671875,0.0,0.0,0.17466577887535095,0.0,0.0,0.0,-3355.24365234375,-16036.763671875,1311.7176513671875,0.0,0.0,45.0,0.0,0.0
1731876093344.0,0.0,0.0,-20.0,0.0,0.0,0.0,0.0,0.0,0.0,0.0,0.0,0.0,0.0,0.0,0.0,11.81707763671875,0.0,0.0,0.17466577887535095,0.0,0.0,0.0,-3355.24365234375,-16036.763671875,1311.7176513671875,0.0,0.0,45.0,0.0,0.0
1731876093394.0,0.0,0.0,-20.0,0.0,0.0,0.0,0.0,0.0,0.0,0.0,0.0,0.0,0.0,0.0,0.0,12.2115478515625,0.0,0.0,0.15924787521362305,0.0,0.0,0.0,-3465.572998046875,-16013.2841796875,1195.93115234375,0.0,0.0,45.0,0.0,0.0
1731876093411.0,0.0,0.0,-20.0,0.0,0.0,0.0,0.0,0.0,0.0,0.0,0.0,0.0,0.0,0.0,0.0,12.39404296875,0.0,0.0,0.15399929881095886,0.0,0.0,0.0,-3516.560302734375,-16002.1640625,1156.5150146484375,0.0,0.0,45.0,0.0,0.0
1731876093428.0,0.0,0.0,-20.0,0.0,0.0,0.0,0.0,0.0,0.0,0.0,0.0,0.0,0.0,0.0,0.0,12.57049560546875,0.0,0.0,0.1486106663942337,0.0,0.0,0.0,-3565.82470703125,-15991.2578125,1116.047119140625,0.0,0.0,45.0,0.0,0.0
1731876093445.0,0.0,0.0,-20.0,0.0,0.0,0.0,0.0,0.0,0.0,0.0,0.0,0.0,0.0,0.0,0.0,12.74078369140625,0.0,0.0,0.1432672142982483,0.0,0.0,0.0,-3613.33642578125,-15980.58984375,1075.91845703125,0.0,0.0,45.0,0.0,0.0
1731876093461.0,0.0,0.0,-20.0,0.0,0.0,0.0,0.0,0.0,0.0,0.0,0.0,0.0,0.0,0.0,0.0,12.90496826171875,0.0,0.0,0.13809069991111755,0.0,0.0,0.0,-3659.11474609375,-15970.169921875,1037.0435791015625,0.0,0.0,45.0,0.0,0.0
1731876093511.0,0.0,0.0,-20.0,0.0,0.0,0.0,0.0,0.0,0.0,0.0,0.0,0.0,0.0,0.0,0.0,13.208953857421875,0.0,0.0,0.12167876958847046,0.0,0.0,0.0,-3743.793701171875,-15950.533203125,913.7919921875,0.0,0.0,45.0,0.0,0.0
1731876093527.0,0.0,0.0,-20.0,0.0,0.0,0.0,0.0,0.0,0.0,0.0,0.0,0.0,0.0,0.0,0.0,13.348388671875,0.0,0.0,0.11622197180986404,0.0,0.0,0.0,-3782.599365234375,-15941.3740234375,872.8121337890625,0.0,0.0,45.0,0.0,0.0
1731876093545.0,0.0,0.0,-20.0,0.0,0.0,0.0,0.0,0.0,0.0,0.0,0.0,0.0,0.0,0.0,0.0,13.4815673828125,0.0,0.0,0.11049949377775192,0.0,0.0,0.0,-3819.643310546875,-15932.5380859375,829.8370971679688,0.0,0.0,45.0,0.0,0.0
1731876093561.0,0.0,0.0,-20.0,0.0,0.0,0.0,0.0,0.0,0.0,0.0,0.0,0.0,0.0,0.0,0.0,13.60821533203125,0.0,0.0,0.10515347868204117,0.0,0.0,0.0,-3854.851806640625,-15924.056640625,789.689208984375,0.0,0.0,45.0,0.0,0.0
1731876093611.0,0.0,0.0,-20.0,0.0,0.0,0.0,0.0,0.0,0.0,0.0,0.0,0.0,0.0,0.0,0.0,13.8363037109375,0.0,0.0,0.08799480646848679,0.0,0.0,0.0,-3918.213134765625,-15908.583984375,660.8297729492188,0.0,0.0,45.0,0.0,0.0
1731876093628.0,0.0,0.0,-20.0,0.0,0.0,0.0,0.0,0.0,0.0,0.0,0.0,0.0,0.0,0.0,0.0,13.9371337890625,0.0,0.0,0.08247268199920654,0.0,0.0,0.0,-3946.203125,-15901.6650390625,619.3593139648438,0.0,0.0,45.0,0.0,0.0
1731876093644.0,0.0,0.0,-20.0,0.0,0.0,0.0,0.0,0.0,0.0,0.0,0.0,0.0,0.0,0.0,0.0,14.031646728515625,0.0,0.0,0.07683476060628891,0.0,0.0,0.0,-3972.42822265625,-15895.1337890625,577.0192260742188,0.0,0.0,45.0,0.0,0.0
1731876093661.0,0.0,0.0,-20.0,0.0,0.0,0.0,0.0,0.0,0.0,0.0,0.0,0.0,0.0,0.0,0.0,14.11968994140625,0.0,0.0,0.07106049358844757,0.0,0.0,0.0,-3996.848876953125,-15889.0107421875,533.6552124023438,0.0,0.0,45.0,0.0,0.0
1731876093694.0,0.0,0.0,-20.0,0.0,0.0,0.0,0.0,0.0,0.0,0.0,0.0,0.0,0.0,0.0,0.0,14.20111083984375,0.0,0.0,0.059601228684186935,0.0,0.0,0.0,-4019.424072265625,-15883.3154296875,447.5976257324219,0.0,0.0,45.0,0.0,0.0
1731876093727.0,0.0,0.0,-20.0,0.0,0.0,0.0,0.0,0.0,0.0,0.0,0.0,0.0,0.0,0.0,0.0,14.33111572265625,0.0,0.0,0.048086877912282944,0.0,0.0,0.0,-4055.453369140625,-15874.1533203125,361.1263122558594,0.0,0.0,45.0,0.0,0.0
1731876093744.0,0.0,0.0,-20.0,0.0,0.0,0.0,0.0,0.0,0.0,0.0,0.0,0.0,0.0,0.0,0.0,14.38623046875,0.0,0.0,0.04226117953658104,0.0,0.0,0.0,-4070.72119140625,-15870.2451171875,317.3760681152344,0.0,0.0,45.0,0.0,0.0
1731876093761.0,0.0,0.0,-20.0,0.0,0.0,0.0,0.0,0.0,0.0,0.0,0.0,0.0,0.0,0.0,0.0,14.434661865234375,0.0,0.0,0.03643432632088661,0.0,0.0,0.0,-4084.134765625,-15866.7978515625,273.61712646484375,0.0,0.0,45.0,0.0,0.0
1731876093794.0,0.0,0.0,-20.0,0.0,0.0,0.0,0.0,0.0,0.0,0.0,0.0,0.0,0.0,0.0,0.0,14.476409912109375,0.0,0.0,0.02461276762187481,0.0,0.0,0.0,-4095.695068359375,-15863.818359375,184.8387451171875,0.0,0.0,45.0,0.0,0.0
1731876093811.0,0.0,0.0,-20.0,0.0,0.0,0.0,0.0,0.0,0.0,0.0,0.0,0.0,0.0,0.0,0.0,14.504608154296875,0.0,0.0,0.01868525892496109,0.0,0.0,0.0,-4103.501953125,-15861.7998046875,140.32391357421875,0.0,0.0,45.0,0.0,0.0
1731876093845.0,0.0,0.0,-20.0,0.0,0.0,0.0,0.0,0.0,0.0,0.0,0.0,0.0,0.0,0.0,0.0,14.5408935546875,0.0,0.0,0.007030273322016001,0.0,0.0,0.0,-4113.54638671875,-15859.19921875,52.79645538330078,0.0,0.0,45.0,0.0,0.0
1731876093845.0,0.0,0.0,-20.0,0.0,0.0,0.0,0.0,0.0,0.0,0.0,0.0,0.0,0.0,0.0,0.0,14.5408935546875,0.0,0.0,0.007030273322016001,0.0,0.0,0.0,-4113.54638671875,-15859.19921875,52.79645538330078,0.0,0.0,45.0,0.0,0.0
1731876093895.0,0.0,0.0,-20.0,0.0,0.0,0.0,0.0,0.0,0.0,0.0,0.0,0.0,0.0,0.0,0.0,14.550445556640625,0.0,0.0,-0.010569870471954346,0.0,0.0,0.0,-4116.18994140625,-15858.5126953125,-79.37837982177734,0.0,0.0,45.0,0.0,0.0
1731876093911.0,0.0,0.0,-20.0,0.0,0.0,0.0,0.0,0.0,0.0,0.0,0.0,0.0,0.0,0.0,0.0,14.538330078125,0.0,0.0,-0.016257965937256813,0.0,0.0,0.0,-4112.8369140625,-15859.3818359375,-122.09524536132812,0.0,0.0,45.0,0.0,0.0
1731876093944.0,0.0,0.0,-20.0,0.0,0.0,0.0,0.0,0.0,0.0,0.0,0.0,0.0,0.0,0.0,0.0,14.494476318359375,0.0,0.0,-0.02792976424098015,0.0,0.0,0.0,-4100.69677734375,-15862.5263671875,-209.74896240234375,0.0,0.0,45.0,0.0,0.0
1731876093944.0,0.0,0.0,-20.0,0.0,0.0,0.0,0.0,0.0,0.0,0.0,0.0,0.0,0.0,0.0,0.0,14.494476318359375,0.0,0.0,-0.02792976424098015,0.0,0.0,0.0,-4100.69677734375,-15862.5263671875,-209.74896240234375,0.0,0.0,45.0,0.0,0.0
1731876093961.0,0.0,0.0,-20.0,0.0,0.0,0.0,0.0,0.0,0.0,0.0,0.0,0.0,0.0,0.0,0.0,14.46246337890625,0.0,0.0,-0.03377086669206619,0.0,0.0,0.0,-4091.8330078125,-15864.8154296875,-253.61489868164062,0.0,0.0,45.0,0.0,0.0
1731876094011.0,0.0,0.0,-20.0,0.0,0.0,0.0,0.0,0.0,0.0,0.0,0.0,0.0,0.0,0.0,0.0,14.3717041015625,0.0,0.0,-0.051199398934841156,0.0,0.0,0.0,-4066.697265625,-15871.27734375,-384.5009460449219,0.0,0.0,45.0,0.0,0.0
1731876094028.0,0.0,0.0,-20.0,0.0,0.0,0.0,0.0,0.0,0.0,0.0,0.0,0.0,0.0,0.0,0.0,14.31304931640625,0.0,0.0,-0.05696146935224533,0.0,0.0,0.0,-4050.447509765625,-15875.4306640625,-427.7733459472656,0.0,0.0,45.0,0.0,0.0
1731876094044.0,0.0,0.0,-20.0,0.0,0.0,0.0,0.0,0.0,0.0,0.0,0.0,0.0,0.0,0.0,0.0,14.247772216796875,0.0,0.0,-0.06270784139633179,0.0,0.0,0.0,-4032.35791015625,-15880.03515625,-470.9278869628906,0.0,0.0,45.0,0.0,0.0
1731876094061.0,0.0,0.0,-20.0,0.0,0.0,0.0,0.0,0.0,0.0,0.0,0.0,0.0,0.0,0.0,0.0,14.1759033203125,0.0,0.0,-0.06851053237915039,0.0,0.0,0.0,-4012.43603515625,-15885.0810546875,-514.50537109375,0.0,0.0,45.0,0.0,0.0
1731876094111.0,0.0,0.0,-20.0,0.0,0.0,0.0,0.0,0.0,0.0,0.0,0.0,0.0,0.0,0.0,0.0,14.00579833984375,0.0,0.0,-0.08560872077941895,0.0,0.0,0.0,-3965.25732421875,-15896.923828125,-642.9105834960938,0.0,0.0,45.0,0.0,0.0
1731876094128.0,0.0,0.0,-20.0,0.0,0.0,0.0,0.0,0.0,0.0,0.0,0.0,0.0,0.0,0.0,0.0,13.907684326171875,0.0,0.0,-0.09135600179433823,0.0,0.0,0.0,-3938.029541015625,-15903.689453125,-686.0718994140625,0.0,0.0,45.0,0.0,0.0
1731876094144.0,0.0,0.0,-20.0,0.0,0.0,0.0,0.0,0.0,0.0,0.0,0.0,0.0,0.0,0.0,0.0,13.803009033203125,0.0,0.0,-0.09700506925582886,0.0,0.0,0.0,-3908.9677734375,-15910.8583984375,-728.4956665039062,0.0,0.0,45.0,0.0,0.0
1731876094161.0,0.0,0.0,-20.0,0.0,0.0,0.0,0.0,0.0,0.0,0.0,0.0,0.0,0.0,0.0,0.0,13.69183349609375,0.0,0.0,-0.10259634256362915,0.0,0.0,0.0,-3878.08740234375,-15918.4150390625,-770.4854125976562,0.0,0.0,45.0,0.0,0.0
1731876094194.0,0.0,0.0,-20.0,0.0,0.0,0.0,0.0,0.0,0.0,0.0,0.0,0.0,0.0,0.0,0.0,13.57427978515625,0.0,0.0,-0.11372295022010803,0.0,0.0,0.0,-3845.419921875,-15926.3369140625,-854.0448608398438,0.0,0.0,45.0,0.0,0.0
1731876094228.0,0.0,0.0,-20.0,0.0,0.0,0.0,0.0,0.0,0.0,0.0,0.0,0.0,0.0,0.0,0.0,13.307342529296875,0.0,0.0,-0.1247635930776596,0.0,0.0,0.0,-3771.178466796875,-15944.0791015625,-936.9586181640625,0.0,0.0,45.0,0.0,0.0
1731876094244.0,0.0,0.0,-20.0,0.0,0.0,0.0,0.0,0.0,0.0,0.0,0.0,0.0,0.0,0.0,0.0,13.16436767578125,0.0,0.0,-0.1302274614572525,0.0,0.0,0.0,-3731.380126953125,-15953.439453125,-977.9915771484375,0.0,0.0,45.0,0.0,0.0
1731876094261.0,0.0,0.0,-20.0,0.0,0.0,0.0,0.0,0.0,0.0,0.0,0.0,0.0,0.0,0.0,0.0,13.01513671875,0.0,0.0,-0.1357242465019226,0.0,0.0,0.0,-3689.815673828125,-15963.1044921875,-1019.271728515625,0.0,0.0,45.0,0.0,0.0
1731876094295.0,0.0,0.0,-20.0,0.0,0.0,0.0,0.0,0.0,0.0,0.0,0.0,0.0,0.0,0.0,0.0,12.859619140625,0.0,0.0,-0.1464342623949051,0.0,0.0,0.0,-3646.473388671875,-15973.060546875,-1099.70263671875,0.0,0.0,45.0,0.0,0.0
1731876094311.0,0.0,0.0,-20.0,0.0,0.0,0.0,0.0,0.0,0.0,0.0,0.0,0.0,0.0,0.0,0.0,12.691802978515625,0.0,0.0,-0.15171463787555695,0.0,0.0,0.0,-3599.673828125,-15983.673828125,-1139.3575439453125,0.0,0.0,45.0,0.0,0.0
1731876094345.0,0.0,0.0,-20.0,0.0,0.0,0.0,0.0,0.0,0.0,0.0,0.0,0.0,0.0,0.0,0.0,12.338104248046875,0.0,0.0,-0.1622055470943451,0.0,0.0,0.0,-3500.935302734375,-16005.58984375,-1218.1429443359375,0.0,0.0,45.0,0.0,0.0
1731876094345.0,0.0,0.0,-20.0,0.0,0.0,0.0,0.0,0.0,0.0,0.0,0.0,0.0,0.0,0.0,0.0,12.338104248046875,0.0,0.0,-0.1622055470943451,0.0,0.0,0.0,-3500.935302734375,-16005.58984375,-1218.1429443359375,0.0,0.0,45.0,0.0,0.0
1731876094395.0,0.0,0.0,-20.0,0.0,0.0,0.0,0.0,0.0,0.0,0.0,0.0,0.0,0.0,0.0,0.0,11.960479736328125,0.0,0.0,-0.17763635516166687,0.0,0.0,0.0,-3395.37060546875,-16028.3173828125,-1334.0263671875,0.0,0.0,45.0,0.0,0.0
1731876094411.0,0.0,0.0,-20.0,0.0,0.0,0.0,0.0,0.0,0.0,0.0,0.0,0.0,0.0,0.0,0.0,11.756927490234375,0.0,0.0,-0.18267017602920532,0.0,0.0,0.0,-3338.406005859375,-16040.27734375,-1371.8297119140625,0.0,0.0,45.0,0.0,0.0
1731876094445.0,0.0,0.0,-20.0,0.0,0.0,0.0,0.0,0.0,0.0,0.0,0.0,0.0,0.0,0.0,0.0,11.33245849609375,0.0,0.0,-0.19261957705020905,0.0,0.0,0.0,-3219.483154296875,-16064.5703125,-1446.5484619140625,0.0,0.0,45.0,0.0,0.0
1731876094445.0,0.0,0.0,-20.0,0.0,0.0,0.0,0.0,0.0,0.0,0.0,0.0,0.0,0.0,0.0,0.0,11.33245849609375,0.0,0.0,-0.19261957705020905,0.0,0.0,0.0,-3219.483154296875,-16064.5703125,-1446.5484619140625,0.0,0.0,45.0,0.0,0.0
1731876094462.0,0.0,0.0,-20.0,0.0,0.0,0.0,0.0,0.0,0.0,0.0,0.0,0.0,0.0,0.0,0.0,11.11175537109375,0.0,0.0,-0.1975315809249878,0.0,0.0,0.0,-3157.578857421875,-16076.8515625,-1483.4368896484375,0.0,0.0,45.0,0.0,0.0
1731876094511.0,0.0,0.0,-20.0,0.0,0.0,0.0,0.0,0.0,0.0,0.0,0.0,0.0,0.0,0.0,0.0,10.648101806640625,0.0,0.0,-0.2117132842540741,0.0,0.0,0.0,-3027.378173828125,-16101.876953125,-1589.939697265625,0.0,0.0,45.0,0.0,0.0
1731876094528.0,0.0,0.0,-20.0,0.0,0.0,0.0,0.0,0.0,0.0,0.0,0.0,0.0,0.0,0.0,0.0,10.405517578125,0.0,0.0,-0.21633736789226532,0.0,0.0,0.0,-2959.177734375,-16114.548828125,-1624.666015625,0.0,0.0,45.0,0.0,0.0
1731876094545.0,0.0,0.0,-20.0,0.0,0.0,0.0,0.0,0.0,0.0,0.0,0.0,0.0,0.0,0.0,0.0,10.1575927734375,0.0,0.0,-0.22090181708335876,0.0,0.0,0.0,-2889.4208984375,-16127.2041015625,-1658.9444580078125,0.0,0.0,45.0,0.0,0.0
1731876094561.0,0.0,0.0,-20.0,0.0,0.0,0.0,0.0,0.0,0.0,0.0,0.0,0.0,0.0,0.0,0.0,9.90447998046875,0.0,0.0,-0.22543007135391235,0.0,0.0,0.0,-2818.1484375,-16139.810546875,-1692.9510498046875,0.0,0.0,45.0,0.0,0.0
1731876094595.0,0.0,0.0,-20.0,0.0,0.0,0.0,0.0,0.0,0.0,0.0,0.0,0.0,0.0,0.0,0.0,9.646148681640625,0.0,0.0,-0.23424890637397766,0.0,0.0,0.0,-2745.349853515625,-16152.353515625,-1759.1793212890625,0.0,0.0,45.0,0.0,0.0
1731876094628.0,0.0,0.0,-20.0,0.0,0.0,0.0,0.0,0.0,0.0,0.0,0.0,0.0,0.0,0.0,0.0,9.104278564453125,0.0,0.0,-0.2428869903087616,0.0,0.0,0.0,-2592.469970703125,-16177.59375,-1824.05029296875,0.0,0.0,45.0,0.0,0.0
1731876094644.0,0.0,0.0,-20.0,0.0,0.0,0.0,0.0,0.0,0.0,0.0,0.0,0.0,0.0,0.0,0.0,8.825958251953125,0.0,0.0,-0.2470129281282425,0.0,0.0,0.0,-2513.855224609375,-16189.9970703125,-1855.0355224609375,0.0,0.0,45.0,0.0,0.0
1731876094661.0,0.0,0.0,-20.0,0.0,0.0,0.0,0.0,0.0,0.0,0.0,0.0,0.0,0.0,0.0,0.0,8.54290771484375,0.0,0.0,-0.25115498900413513,0.0,0.0,0.0,-2433.843505859375,-16202.2177734375,-1886.141845703125,0.0,0.0,45.0,0.0,0.0
1731876094695.0,0.0,0.0,-20.0,0.0,0.0,0.0,0.0,0.0,0.0,0.0,0.0,0.0,0.0,0.0,0.0,8.255096435546875,0.0,0.0,-0.2592344582080841,0.0,0.0,0.0,-2352.42529296875,-16214.23828125,-1946.817626953125,0.0,0.0,45.0,0.0,0.0
1731876094711.0,0.0,0.0,-20.0,0.0,0.0,0.0,0.0,0.0,0.0,0.0,0.0,0.0,0.0,0.0,0.0,7.958038330078125,0.0,0.0,-0.2631835639476776,0.0,0.0,0.0,-2268.3291015625,-16226.2177734375,-1976.4749755859375,0.0,0.0,45.0,0.0,0.0
1731876094745.0,0.0,0.0,-20.0,0.0,0.0,0.0,0.0,0.0,0.0,0.0,0.0,0.0,0.0,0.0,0.0,7.3504638671875,0.0,0.0,-0.27078232169151306,0.0,0.0,0.0,-2096.13916015625,-16249.359375,-2033.5406494140625,0.0,0.0,45.0,0.0,0.0
1731876094745.0,0.0,0.0,-20.0,0.0,0.0,0.0,0.0,0.0,0.0,0.0,0.0,0.0,0.0,0.0,0.0,7.3504638671875,0.0,0.0,-0.27078232169151306,0.0,0.0,0.0,-2096.13916015625,-16249.359375,-2033.5406494140625,0.0,0.0,45.0,0.0,0.0
1731876094762.0,0.0,0.0,-20.0,0.0,0.0,0.0,0.0,0.0,0.0,0.0,0.0,0.0,0.0,0.0,0.0,7.0401611328125,0.0,0.0,-0.2745265066623688,0.0,0.0,0.0,-2008.10546875,-16260.4736328125,-2061.658935546875,0.0,0.0,45.0,0.0,0.0
1731876094812.0,0.0,0.0,-20.0,0.0,0.0,0.0,0.0,0.0,0.0,0.0,0.0,0.0,0.0,0.0,0.0,6.40283203125,0.0,0.0,-0.2851777672767639,0.0,0.0,0.0,-1827.1116943359375,-16281.8037109375,-2141.648681640625,0.0,0.0,45.0,0.0,0.0
1731876094828.0,0.0,0.0,-20.0,0.0,0.0,0.0,0.0,0.0,0.0,0.0,0.0,0.0,0.0,0.0,0.0,6.0760498046875,0.0,0.0,-0.288482129573822,0.0,0.0,0.0,-1734.2205810546875,-16291.958984375,-2166.4638671875,0.0,0.0,45.0,0.0,0.0
1731876094845.0,0.0,0.0,-20.0,0.0,0.0,0.0,0.0,0.0,0.0,0.0,0.0,0.0,0.0,0.0,0.0,5.745452880859375,0.0,0.0,-0.2917695939540863,0.0,0.0,0.0,-1640.1875,-16301.6943359375,-2191.15234375,0.0,0.0,45.0,0.0,0.0
1731876094862.0,0.0,0.0,-20.0,0.0,0.0,0.0,0.0,0.0,0.0,0.0,0.0,0.0,0.0,0.0,0.0,5.4111328125,0.0,0.0,-0.29502904415130615,0.0,0.0,0.0,-1545.0399169921875,-16310.9873046875,-2215.63037109375,0.0,0.0,45.0,0.0,0.0
1731876094912.0,0.0,0.0,-20.0,0.0,0.0,0.0,0.0,0.0,0.0,0.0,0.0,0.0,0.0,0.0,0.0,4.727874755859375,0.0,0.0,-0.30422458052635193,0.0,0.0,0.0,-1350.424560546875,-16328.251953125,-2284.687744140625,0.0,0.0,45.0,0.0,0.0
1731876094928.0,0.0,0.0,-20.0,0.0,0.0,0.0,0.0,0.0,0.0,0.0,0.0,0.0,0.0,0.0,0.0,4.3792724609375,0.0,0.0,-0.3070823550224304,0.0,0.0,0.0,-1251.0548095703125,-16336.166015625,-2306.149169921875,0.0,0.0,45.0,0.0,0.0
1731876094945.0,0.0,0.0,-20.0,0.0,0.0,0.0,0.0,0.0,0.0,0.0,0.0,0.0,0.0,0.0,0.0,4.027374267578125,0.0,0.0,-0.3098564147949219,0.0,0.0,0.0,-1150.6986083984375,-16343.541015625,-2326.982177734375,0.0,0.0,45.0,0.0,0.0
1731876094962.0,0.0,0.0,-20.0,0.0,0.0,0.0,0.0,0.0,0.0,0.0,0.0,0.0,0.0,0.0,0.0,3.67230224609375,0.0,0.0,-0.3126242756843567,0.0,0.0,0.0,-1049.393310546875,-16350.357421875,-2347.768310546875,0.0,0.0,45.0,0.0,0.0
1731876094995.0,0.0,0.0,-20.0,0.0,0.0,0.0,0.0,0.0,0.0,0.0,0.0,0.0,0.0,0.0,0.0,3.314056396484375,0.0,0.0,-0.3177512586116791,0.0,0.0,0.0,-947.141845703125,-16356.6015625,-2386.271484375,0.0,0.0,45.0,0.0,0.0
1731876095028.0,0.0,0.0,-20.0,0.0,0.0,0.0,0.0,0.0,0.0,0.0,0.0,0.0,0.0,0.0,0.0,2.5830078125,0.0,0.0,-0.3225645124912262,0.0,0.0,0.0,-738.3731689453125,-16367.3544921875,-2422.418212890625,0.0,0.0,45.0,0.0,0.0
1731876095045.0,0.0,0.0,-20.0,0.0,0.0,0.0,0.0,0.0,0.0,0.0,0.0,0.0,0.0,0.0,0.0,2.21337890625,0.0,0.0,-0.3248412013053894,0.0,0.0,0.0,-632.768798828125,-16371.77734375,-2439.515869140625,0.0,0.0,45.0,0.0,0.0
1731876095045.0,0.0,0.0,-20.0,0.0,0.0,0.0,0.0,0.0,0.0,0.0,0.0,0.0,0.0,0.0,0.0,2.21337890625,0.0,0.0,-0.3248412013053894,0.0,0.0,0.0,-632.768798828125,-16371.77734375,-2439.515869140625,0.0,0.0,45.0,0.0,0.0
1731876095095.0,0.0,0.0,-20.0,0.0,0.0,0.0,0.0,0.0,0.0,0.0,0.0,0.0,0.0,0.0,0.0,1.466400146484375,0.0,0.0,-0.3311293423175812,0.0,0.0,0.0,-419.2783203125,-16378.6337890625,-2486.739013671875,0.0,0.0,45.0,0.0,0.0
1731876095112.0,0.0,0.0,-20.0,0.0,0.0,0.0,0.0,0.0,0.0,0.0,0.0,0.0,0.0,0.0,0.0,1.086944580078125,0.0,0.0,-0.33306071162223816,0.0,0.0,0.0,-310.7983093261719,-16381.0517578125,-2501.243408203125,0.0,0.0,45.0,0.0,0.0
1731876095145.0,0.0,0.0,-20.0,0.0,0.0,0.0,0.0,0.0,0.0,0.0,0.0,0.0,0.0,0.0,0.0,0.321563720703125,0.0,0.0,-0.33658313751220703,0.0,0.0,0.0,-91.95218658447266,-16383.7421875,-2527.6962890625,0.0,0.0,45.0,0.0,0.0
1731876095145.0,0.0,0.0,-20.0,0.0,0.0,0.0,0.0,0.0,0.0,0.0,0.0,0.0,0.0,0.0,0.0,0.321563720703125,0.0,0.0,-0.33658313751220703,0.0,0.0,0.0,-91.95218658447266,-16383.7421875,-2527.6962890625,0.0,0.0,45.0,0.0,0.0
1731876095162.0,0.0,0.0,-20.0,0.0,0.0,0.0,0.0,0.0,0.0,0.0,0.0,0.0,0.0,0.0,0.0,-0.06412968784570694,0.0,0.0,-0.3382054567337036,0.0,0.0,0.0,18.338184356689453,-16383.9892578125,-2539.8798828125,0.0,0.0,45.0,0.0,0.0
1731876095212.0,0.0,0.0,-20.0,0.0,0.0,0.0,0.0,0.0,0.0,0.0,0.0,0.0,0.0,0.0,0.0,-0.8426454067230225,0.0,0.0,-0.34253525733947754,0.0,0.0,0.0,240.9497833251953,-16382.228515625,-2572.39599609375,0.0,0.0,45.0,0.0,0.0
1731876095228.0,0.0,0.0,-20.0,0.0,0.0,0.0,0.0,0.0,0.0,0.0,0.0,0.0,0.0,0.0,0.0,-1.2351620197296143,0.0,0.0,-0.3437805473804474,0.0,0.0,0.0,353.1731262207031,-16380.193359375,-2581.748046875,0.0,0.0,45.0,0.0,0.0
1731876095245.0,0.0,0.0,-20.0,0.0,0.0,0.0,0.0,0.0,0.0,0.0,0.0,0.0,0.0,0.0,0.0,-1.6291056871414185,0.0,0.0,-0.3449574410915375,0.0,0.0,0.0,465.7877502441406,-16377.376953125,-2590.58642578125,0.0,0.0,45.0,0.0,0.0
1731876095262.0,0.0,0.0,-20.0,0.0,0.0,0.0,0.0,0.0,0.0,0.0,0.0,0.0,0.0,0.0,0.0,-2.024397850036621,0.0,0.0,-0.34601065516471863,0.0,0.0,0.0,578.7657470703125,-16373.7744140625,-2598.495849609375,0.0,0.0,45.0,0.0,0.0
1731876095295.0,0.0,0.0,-20.0,0.0,0.0,0.0,0.0,0.0,0.0,0.0,0.0,0.0,0.0,0.0,0.0,-2.4208967685699463,0.0,0.0,-0.34783074259757996,0.0,0.0,0.0,692.0609130859375,-16369.376953125,-2612.16455078125,0.0,0.0,45.0,0.0,0.0
1731876095329.0,0.0,0.0,-20.0,0.0,0.0,0.0,0.0,0.0,0.0,0.0,0.0,0.0,0.0,0.0,0.0,-3.218963861465454,0.0,0.0,-0.3492708206176758,0.0,0.0,0.0,919.993896484375,-16358.1494140625,-2622.979248046875,0.0,0.0,45.0,0.0,0.0
1731876095346.0,0.0,0.0,-20.0,0.0,0.0,0.0,0.0,0.0,0.0,0.0,0.0,0.0,0.0,0.0,0.0,-3.61919903755188,0.0,0.0,-0.3498539328575134,0.0,0.0,0.0,1034.239013671875,-16351.32421875,-2627.3583984375,0.0,0.0,45.0,0.0,0.0
1731876095346.0,0.0,0.0,-20.0,0.0,0.0,0.0,0.0,0.0,0.0,0.0,0.0,0.0,0.0,0.0,0.0,-3.61919903755188,0.0,0.0,-0.3498539328575134,0.0,0.0,0.0,1034.239013671875,-16351.32421875,-2627.3583984375,0.0,0.0,45.0,0.0,0.0
1731876095395.0,0.0,0.0,-20.0,0.0,0.0,0.0,0.0,0.0,0.0,0.0,0.0,0.0,0.0,0.0,0.0,-4.421544075012207,0.0,0.0,-0.3509913682937622,0.0,0.0,0.0,1263.1070556640625,-16335.2373046875,-2635.900390625,0.0,0.0,45.0,0.0,0.0
1731876095412.0,0.0,0.0,-20.0,0.0,0.0,0.0,0.0,0.0,0.0,0.0,0.0,0.0,0.0,0.0,0.0,-4.8237504959106445,0.0,0.0,-0.3511769473552704,0.0,0.0,0.0,1377.7454833984375,-16325.9697265625,-2637.2939453125,0.0,0.0,45.0,0.0,0.0
1731876095445.0,0.0,0.0,-20.0,0.0,0.0,0.0,0.0,0.0,0.0,0.0,0.0,0.0,0.0,0.0,0.0,-5.628688335418701,0.0,0.0,-0.35125547647476196,0.0,0.0,0.0,1606.9625244140625,-16305.001953125,-2637.8837890625,0.0,0.0,45.0,0.0,0.0
1731876095445.0,0.0,0.0,-20.0,0.0,0.0,0.0,0.0,0.0,0.0,0.0,0.0,0.0,0.0,0.0,0.0,-5.628688335418701,0.0,0.0,-0.35125547647476196,0.0,0.0,0.0,1606.9625244140625,-16305.001953125,-2637.8837890625,0.0,0.0,45.0,0.0,0.0
1731876095462.0,0.0,0.0,-20.0,0.0,0.0,0.0,0.0,0.0,0.0,0.0,0.0,0.0,0.0,0.0,0.0,-6.031198024749756,0.0,0.0,-0.35114532709121704,0.0,0.0,0.0,1721.4664306640625,-16293.3115234375,-2637.056640625,0.0,0.0,45.0,0.0,0.0
1731876095512.0,0.0,0.0,-20.0,0.0,0.0,0.0,0.0,0.0,0.0,0.0,0.0,0.0,0.0,0.0,0.0,-6.83538293838501,0.0,0.0,-0.3502396047115326,0.0,0.0,0.0,1949.97705078125,-16267.544921875,-2630.254638671875,0.0,0.0,45.0,0.0,0.0
1731876095529.0,0.0,0.0,-20.0,0.0,0.0,0.0,0.0,0.0,0.0,0.0,0.0,0.0,0.0,0.0,0.0,-7.236727237701416,0.0,0.0,-0.34973853826522827,0.0,0.0,0.0,2063.878662109375,-16253.4873046875,-2626.49169921875,0.0,0.0,45.0,0.0,0.0
1731876095546.0,0.0,0.0,-20.0,0.0,0.0,0.0,0.0,0.0,0.0,0.0,0.0,0.0,0.0,0.0,0.0,-7.637497901916504,0.0,0.0,-0.34914126992225647,0.0,0.0,0.0,2177.516845703125,-16238.654296875,-2622.00634765625,0.0,0.0,45.0,0.0,0.0
1731876095562.0,0.0,0.0,-20.0,0.0,0.0,0.0,0.0,0.0,0.0,0.0,0.0,0.0,0.0,0.0,0.0,-8.037585258483887,0.0,0.0,-0.3484531342983246,0.0,0.0,0.0,2290.854736328125,-16223.052734375,-2616.838623046875,0.0,0.0,45.0,0.0,0.0
1731876095596.0,0.0,0.0,-20.0,0.0,0.0,0.0,0.0,0.0,0.0,0.0,0.0,0.0,0.0,0.0,0.0,-8.436882972717285,0.0,0.0,-0.346774697303772,0.0,0.0,0.0,2403.857666015625,-16206.693359375,-2604.233642578125,0.0,0.0,45.0,0.0,0.0
1731876095629.0,0.0,0.0,-20.0,0.0,0.0,0.0,0.0,0.0,0.0,0.0,0.0,0.0,0.0,0.0,0.0,-9.2305269241333,0.0,0.0,-0.34473785758018494,0.0,0.0,0.0,2628.110107421875,-16171.8427734375,-2588.937255859375,0.0,0.0,45.0,0.0,0.0
1731876095645.0,0.0,0.0,-20.0,0.0,0.0,0.0,0.0,0.0,0.0,0.0,0.0,0.0,0.0,0.0,0.0,-9.625567436218262,0.0,0.0,-0.34355518221855164,0.0,0.0,0.0,2739.5478515625,-16153.337890625,-2580.055419921875,0.0,0.0,45.0,0.0,0.0
1731876095645.0,0.0,0.0,-20.0,0.0,0.0,0.0,0.0,0.0,0.0,0.0,0.0,0.0,0.0,0.0,0.0,-9.625567436218262,0.0,0.0,-0.34355518221855164,0.0,0.0,0.0,2739.5478515625,-16153.337890625,-2580.055419921875,0.0,0.0,45.0,0.0,0.0
1731876095696.0,0.0,0.0,-20.0,0.0,0.0,0.0,0.0,0.0,0.0,0.0,0.0,0.0,0.0,0.0,0.0,-10.411463737487793,0.0,0.0,-0.33944785594940186,0.0,0.0,0.0,2960.849853515625,-16114.2431640625,-2549.2099609375,0.0,0.0,45.0,0.0,0.0
1731876095712.0,0.0,0.0,-20.0,0.0,0.0,0.0,0.0,0.0,0.0,0.0,0.0,0.0,0.0,0.0,0.0,-10.800443649291992,0.0,0.0,-0.33789199590682983,0.0,0.0,0.0,3070.18017578125,-16093.76953125,-2537.525634765625,0.0,0.0,45.0,0.0,0.0
1731876095746.0,0.0,0.0,-20.0,0.0,0.0,0.0,0.0,0.0,0.0,0.0,0.0,0.0,0.0,0.0,0.0,-11.5729341506958,0.0,0.0,-0.3344852030277252,0.0,0.0,0.0,3286.878662109375,-16050.9150390625,-2511.941162109375,0.0,0.0,45.0,0.0,0.0
1731876095746.0,0.0,0.0,-20.0,0.0,0.0,0.0,0.0,0.0,0.0,0.0,0.0,0.0,0.0,0.0,0.0,-11.5729341506958,0.0,0.0,-0.3344852030277252,0.0,0.0,0.0,3286.878662109375,-16050.9150390625,-2511.941162109375,0.0,0.0,45.0,0.0,0.0
1731876095762.0,0.0,0.0,-20.0,0.0,0.0,0.0,0.0,0.0,0.0,0.0,0.0,0.0,0.0,0.0,0.0,-11.956226348876953,0.0,0.0,-0.33267173171043396,0.0,0.0,0.0,3394.180419921875,-16028.568359375,-2498.322265625,0.0,0.0,45.0,0.0,0.0
1731876095813.0,0.0,0.0,-20.0,0.0,0.0,0.0,0.0,0.0,0.0,0.0,0.0,0.0,0.0,0.0,0.0,-12.714164733886719,0.0,0.0,-0.32657694816589355,0.0,0.0,0.0,3605.911865234375,-15982.267578125,-2452.55126953125,0.0,0.0,45.0,0.0,0.0
1731876095829.0,0.0,0.0,-20.0,0.0,0.0,0.0,0.0,0.0,0.0,0.0,0.0,0.0,0.0,0.0,0.0,-13.088394165039062,0.0,0.0,-0.3244416415691376,0.0,0.0,0.0,3710.22265625,-15958.3740234375,-2436.515380859375,0.0,0.0,45.0,0.0,0.0
1731876095863.0,0.0,0.0,-20.0,0.0,0.0,0.0,0.0,0.0,0.0,0.0,0.0,0.0,0.0,0.0,0.0,-13.829262733459473,0.0,0.0,-0.31969085335731506,0.0,0.0,0.0,3916.258056640625,-15909.0673828125,-2400.83740234375,0.0,0.0,45.0,0.0,0.0
1731876095863.0,0.0,0.0,-20.0,0.0,0.0,0.0,0.0,0.0,0.0,0.0,0.0,0.0,0.0,0.0,0.0,-13.829262733459473,0.0,0.0,-0.31969085335731506,0.0,0.0,0.0,3916.258056640625,-15909.0673828125,-2400.83740234375,0.0,0.0,45.0,0.0,0.0
1731876095879.0,0.0,0.0,-20.0,0.0,0.0,0.0,0.0,0.0,0.0,0.0,0.0,0.0,0.0,0.0,0.0,-14.195602416992188,0.0,0.0,-0.3172440528869629,0.0,0.0,0.0,4017.897216796875,-15883.7001953125,-2382.46240234375,0.0,0.0,45.0,0.0,0.0
1731876095929.0,0.0,0.0,-20.0,0.0,0.0,0.0,0.0,0.0,0.0,0.0,0.0,0.0,0.0,0.0,0.0,-14.916675567626953,0.0,0.0,-0.30931147933006287,0.0,0.0,0.0,4217.47216796875,-15831.87890625,-2322.8896484375,0.0,0.0,45.0,0.0,0.0
1731876095946.0,0.0,0.0,-20.0,0.0,0.0,0.0,0.0,0.0,0.0,0.0,0.0,0.0,0.0,0.0,0.0,-15.271120071411133,0.0,0.0,-0.3065049946308136,0.0,0.0,0.0,4315.32958984375,-15805.486328125,-2301.8134765625,0.0,0.0,45.0,0.0,0.0
1731876095963.0,0.0,0.0,-20.0,0.0,0.0,0.0,0.0,0.0,0.0,0.0,0.0,0.0,0.0,0.0,0.0,-15.62234878540039,0.0,0.0,-0.3035601079463959,0.0,0.0,0.0,4412.13720703125,-15778.736328125,-2279.69775390625,0.0,0.0,45.0,0.0,0.0
1731876095979.0,0.0,0.0,-20.0,0.0,0.0,0.0,0.0,0.0,0.0,0.0,0.0,0.0,0.0,0.0,0.0,-15.970203399658203,0.0,0.0,-0.3006005883216858,0.0,0.0,0.0,4507.8515625,-15751.6591796875,-2257.471923828125,0.0,0.0,45.0,0.0,0.0
1731876096013.0,0.0,0.0,-20.0,0.0,0.0,0.0,0.0,0.0,0.0,0.0,0.0,0.0,0.0,0.0,0.0,-16.314666748046875,0.0,0.0,-0.2943488359451294,0.0,0.0,0.0,4602.46923828125,-15724.2734375,-2210.522216796875,0.0,0.0,45.0,0.0,0.0
1731876096046.0,0.0,0.0,-20.0,0.0,0.0,0.0,0.0,0.0,0.0,0.0,0.0,0.0,0.0,0.0,0.0,-16.985658645629883,0.0,0.0,-0.2877979576587677,0.0,0.0,0.0,4786.29638671875,-15669.2958984375,-2161.325927734375,0.0,0.0,45.0,0.0,0.0
1731876096062.0,0.0,0.0,-20.0,0.0,0.0,0.0,0.0,0.0,0.0,0.0,0.0,0.0,0.0,0.0,0.0,-17.315452575683594,0.0,0.0,-0.28445881605148315,0.0,0.0,0.0,4876.40869140625,-15641.486328125,-2136.249267578125,0.0,0.0,45.0,0.0,0.0
1731876096079.0,0.0,0.0,-20.0,0.0,0.0,0.0,0.0,0.0,0.0,0.0,0.0,0.0,0.0,0.0,0.0,-17.641416549682617,0.0,0.0,-0.2809982895851135,0.0,0.0,0.0,4965.31591796875,-15613.490234375,-2110.26123046875,0.0,0.0,45.0,0.0,0.0
1731876096113.0,0.0,0.0,-20.0,0.0,0.0,0.0,0.0,0.0,0.0,0.0,0.0,0.0,0.0,0.0,0.0,-17.963420867919922,0.0,0.0,-0.27375850081443787,0.0,0.0,0.0,5052.9853515625,-15585.33984375,-2055.891357421875,0.0,0.0,45.0,0.0,0.0
1731876096129.0,0.0,0.0,-20.0,0.0,0.0,0.0,0.0,0.0,0.0,0.0,0.0,0.0,0.0,0.0,0.0,-18.277122497558594,0.0,0.0,-0.270046204328537,0.0,0.0,0.0,5138.2412109375,-15557.439453125,-2028.012451171875,0.0,0.0,45.0,0.0,0.0
1731876096162.0,0.0,0.0,-20.0,0.0,0.0,0.0,0.0,0.0,0.0,0.0,0.0,0.0,0.0,0.0,0.0,-18.891754150390625,0.0,0.0,-0.26243966817855835,0.0,0.0,0.0,5304.83251953125,-15501.4267578125,-1970.888427734375,0.0,0.0,45.0,0.0,0.0
1731876096162.0,0.0,0.0,-20.0,0.0,0.0,0.0,0.0,0.0,0.0,0.0,0.0,0.0,0.0,0.0,0.0,-18.891754150390625,0.0,0.0,-0.26243966817855835,0.0,0.0,0.0,5304.83251953125,-15501.4267578125,-1970.888427734375,0.0,0.0,45.0,0.0,0.0
1731876096179.0,0.0,0.0,-20.0,0.0,0.0,0.0,0.0,0.0,0.0,0.0,0.0,0.0,0.0,0.0,0.0,-19.192485809326172,0.0,0.0,-0.258476585149765,0.0,0.0,0.0,5386.1220703125,-15473.3681640625,-1941.1260986328125,0.0,0.0,45.0,0.0,0.0
1731876096230.0,0.0,0.0,-20.0,0.0,0.0,0.0,0.0,0.0,0.0,0.0,0.0,0.0,0.0,0.0,0.0,-19.77560806274414,0.0,0.0,-0.24619160592556,0.0,0.0,0.0,5543.3193359375,-15417.751953125,-1848.8675537109375,0.0,0.0,45.0,0.0,0.0
1731876096246.0,0.0,0.0,-20.0,0.0,0.0,0.0,0.0,0.0,0.0,0.0,0.0,0.0,0.0,0.0,0.0,-20.057720184326172,0.0,0.0,-0.24202144145965576,0.0,0.0,0.0,5619.16552734375,-15390.2705078125,-1817.5501708984375,0.0,0.0,45.0,0.0,0.0
1731876096263.0,0.0,0.0,-20.0,0.0,0.0,0.0,0.0,0.0,0.0,0.0,0.0,0.0,0.0,0.0,0.0,-20.335058212280273,0.0,0.0,-0.2377379685640335,0.0,0.0,0.0,5693.59521484375,-15362.8916015625,-1785.3818359375,0.0,0.0,45.0,0.0,0.0
1731876096280.0,0.0,0.0,-20.0,0.0,0.0,0.0,0.0,0.0,0.0,0.0,0.0,0.0,0.0,0.0,0.0,-20.607486724853516,0.0,0.0,-0.23336419463157654,0.0,0.0,0.0,5766.578125,-15335.6455078125,-1752.5352783203125,0.0,0.0,45.0,0.0,0.0
1731876096330.0,0.0,0.0,-20.0,0.0,0.0,0.0,0.0,0.0,0.0,0.0,0.0,0.0,0.0,0.0,0.0,-21.132089614868164,0.0,0.0,-0.219920352101326,0.0,0.0,0.0,5906.74755859375,-15282.205078125,-1651.57373046875,0.0,0.0,45.0,0.0,0.0
1731876096346.0,0.0,0.0,-20.0,0.0,0.0,0.0,0.0,0.0,0.0,0.0,0.0,0.0,0.0,0.0,0.0,-21.384098052978516,0.0,0.0,-0.2153174877166748,0.0,0.0,0.0,5973.90771484375,-15256.0771484375,-1617.0068359375,0.0,0.0,45.0,0.0,0.0
1731876096363.0,0.0,0.0,-20.0,0.0,0.0,0.0,0.0,0.0,0.0,0.0,0.0,0.0,0.0,0.0,0.0,-21.63083267211914,0.0,0.0,-0.2106546312570572,0.0,0.0,0.0,6039.5498046875,-15230.208984375,-1581.9893798828125,0.0,0.0,45.0,0.0,0.0
1731876096380.0,0.0,0.0,-20.0,0.0,0.0,0.0,0.0,0.0,0.0,0.0,0.0,0.0,0.0,0.0,0.0,-21.872224807739258,0.0,0.0,-0.2059851735830307,0.0,0.0,0.0,6103.662109375,-15204.6298828125,-1546.92236328125,0.0,0.0,45.0,0.0,0.0
1731876096413.0,0.0,0.0,-20.0,0.0,0.0,0.0,0.0,0.0,0.0,0.0,0.0,0.0,0.0,0.0,0.0,-22.108264923095703,0.0,0.0,-0.19637246429920197,0.0,0.0,0.0,6166.248046875,-15179.35546875,-1474.732177734375,0.0,0.0,45.0,0.0,0.0
1731876096447.0,0.0,0.0,-20.0,0.0,0.0,0.0,0.0,0.0,0.0,0.0,0.0,0.0,0.0,0.0,0.0,-22.552671432495117,0.0,0.0,-0.1865045577287674,0.0,0.0,0.0,6283.79833984375,-15131.072265625,-1400.6253662109375,0.0,0.0,45.0,0.0,0.0
1731876096463.0,0.0,0.0,-20.0,0.0,0.0,0.0,0.0,0.0,0.0,0.0,0.0,0.0,0.0,0.0,0.0,-22.766389846801758,0.0,0.0,-0.1814730316400528,0.0,0.0,0.0,6340.19482421875,-15107.5263671875,-1362.8392333984375,0.0,0.0,45.0,0.0,0.0
1731876096480.0,0.0,0.0,-20.0,0.0,0.0,0.0,0.0,0.0,0.0,0.0,0.0,0.0,0.0,0.0,0.0,-22.97434425354004,0.0,0.0,-0.1764550805091858,0.0,0.0,0.0,6394.9853515625,-15084.416015625,-1325.1551513671875,0.0,0.0,45.0,0.0,0.0
1731876096513.0,0.0,0.0,-20.0,0.0,0.0,0.0,0.0,0.0,0.0,0.0,0.0,0.0,0.0,0.0,0.0,-23.176544189453125,0.0,0.0,-0.16624635457992554,0.0,0.0,0.0,6448.1787109375,-15061.75390625,-1248.4888916015625,0.0,0.0,45.0,0.0,0.0
1731876096547.0,0.0,0.0,-20.0,0.0,0.0,0.0,0.0,0.0,0.0,0.0,0.0,0.0,0.0,0.0,0.0,-23.551578521728516,0.0,0.0,-0.15578608214855194,0.0,0.0,0.0,6546.62841796875,-15019.2236328125,-1169.93359375,0.0,0.0,45.0,0.0,0.0
1731876096563.0,0.0,0.0,-20.0,0.0,0.0,0.0,0.0,0.0,0.0,0.0,0.0,0.0,0.0,0.0,0.0,-23.730098724365234,0.0,0.0,-0.15053805708885193,0.0,0.0,0.0,6593.39306640625,-14998.75390625,-1130.5216064453125,0.0,0.0,45.0,0.0,0.0
1731876096563.0,0.0,0.0,-20.0,0.0,0.0,0.0,0.0,0.0,0.0,0.0,0.0,0.0,0.0,0.0,0.0,-23.730098724365234,0.0,0.0,-0.15053805708885193,0.0,0.0,0.0,6593.39306640625,-14998.75390625,-1130.5216064453125,0.0,0.0,45.0,0.0,0.0
1731876096613.0,0.0,0.0,-20.0,0.0,0.0,0.0,0.0,0.0,0.0,0.0,0.0,0.0,0.0,0.0,0.0,-24.0689754486084,0.0,0.0,-0.1344914585351944,0.0,0.0,0.0,6681.9873046875,-14959.4951171875,-1010.013671875,0.0,0.0,45.0,0.0,0.0
1731876096630.0,0.0,0.0,-20.0,0.0,0.0,0.0,0.0,0.0,0.0,0.0,0.0,0.0,0.0,0.0,0.0,-24.22309112548828,0.0,0.0,-0.1290559470653534,0.0,0.0,0.0,6722.2021484375,-14941.46875,-969.1936645507812,0.0,0.0,45.0,0.0,0.0
1731876096664.0,0.0,0.0,-20.0,0.0,0.0,0.0,0.0,0.0,0.0,0.0,0.0,0.0,0.0,0.0,0.0,-24.512632369995117,0.0,0.0,-0.11803818494081497,0.0,0.0,0.0,6797.62109375,-14907.306640625,-886.4517211914062,0.0,0.0,45.0,0.0,0.0
1731876096664.0,0.0,0.0,-20.0,0.0,0.0,0.0,0.0,0.0,0.0,0.0,0.0,0.0,0.0,0.0,0.0,-24.512632369995117,0.0,0.0,-0.11803818494081497,0.0,0.0,0.0,6797.62109375,-14907.306640625,-886.4517211914062,0.0,0.0,45.0,0.0,0.0
1731876096713.0,0.0,0.0,-20.0,0.0,0.0,0.0,0.0,0.0,0.0,0.0,0.0,0.0,0.0,0.0,0.0,-24.776775360107422,0.0,0.0,-0.10139014571905136,0.0,0.0,0.0,6866.27392578125,-14875.810546875,-761.4270629882812,0.0,0.0,45.0,0.0,0.0
1731876096730.0,0.0,0.0,-20.0,0.0,0.0,0.0,0.0,0.0,0.0,0.0,0.0,0.0,0.0,0.0,0.0,-24.89295768737793,0.0,0.0,-0.09568982571363449,0.0,0.0,0.0,6896.423828125,-14861.85546875,-718.6183471679688,0.0,0.0,45.0,0.0,0.0
1731876096764.0,0.0,0.0,-20.0,0.0,0.0,0.0,0.0,0.0,0.0,0.0,0.0,0.0,0.0,0.0,0.0,-25.105819702148438,0.0,0.0,-0.08438567817211151,0.0,0.0,0.0,6951.58984375,-14836.1328125,-633.7256469726562,0.0,0.0,45.0,0.0,0.0
1731876096764.0,0.0,0.0,-20.0,0.0,0.0,0.0,0.0,0.0,0.0,0.0,0.0,0.0,0.0,0.0,0.0,-25.105819702148438,0.0,0.0,-0.08438567817211151,0.0,0.0,0.0,6951.58984375,-14836.1328125,-633.7256469726562,0.0,0.0,45.0,0.0,0.0
1731876096814.0,0.0,0.0,-20.0,0.0,0.0,0.0,0.0,0.0,0.0,0.0,0.0,0.0,0.0,0.0,0.0,-25.292755126953125,0.0,0.0,-0.06724224239587784,0.0,0.0,0.0,6999.95849609375,-14813.3740234375,-504.98065185546875,0.0,0.0,45.0,0.0,0.0
1731876096830.0,0.0,0.0,-20.0,0.0,0.0,0.0,0.0,0.0,0.0,0.0,0.0,0.0,0.0,0.0,0.0,-25.369808197021484,0.0,0.0,-0.061572734266519547,0.0,0.0,0.0,7019.87353515625,-14803.9462890625,-462.40338134765625,0.0,0.0,45.0,0.0,0.0
1731876096864.0,0.0,0.0,-20.0,0.0,0.0,0.0,0.0,0.0,0.0,0.0,0.0,0.0,0.0,0.0,0.0,-25.504175186157227,0.0,0.0,-0.04992019757628441,0.0,0.0,0.0,7054.57080078125,-14787.443359375,-374.8943176269531,0.0,0.0,45.0,0.0,0.0
1731876096864.0,0.0,0.0,-20.0,0.0,0.0,0.0,0.0,0.0,0.0,0.0,0.0,0.0,0.0,0.0,0.0,-25.504175186157227,0.0,0.0,-0.04992019757628441,0.0,0.0,0.0,7054.57080078125,-14787.443359375,-374.8943176269531,0.0,0.0,45.0,0.0,0.0
1731876096880.0,0.0,0.0,-20.0,0.0,0.0,0.0,0.0,0.0,0.0,0.0,0.0,0.0,0.0,0.0,0.0,-25.56138038635254,0.0,0.0,-0.0441836416721344,0.0,0.0,0.0,7069.33203125,-14780.392578125,-331.8135070800781,0.0,0.0,45.0,0.0,0.0
1731876096930.0,0.0,0.0,-20.0,0.0,0.0,0.0,0.0,0.0,0.0,0.0,0.0,0.0,0.0,0.0,0.0,-25.649391174316406,0.0,0.0,-0.026779968291521072,0.0,0.0,0.0,7092.02783203125,-14769.515625,-201.1141357421875,0.0,0.0,45.0,0.0,0.0
1731876096947.0,0.0,0.0,-20.0,0.0,0.0,0.0,0.0,0.0,0.0,0.0,0.0,0.0,0.0,0.0,0.0,-25.68008041381836,0.0,0.0,-0.02085483819246292,0.0,0.0,0.0,7099.9375,-14765.71484375,-156.61717224121094,0.0,0.0,45.0,0.0,0.0
1731876096963.0,0.0,0.0,-20.0,0.0,0.0,0.0,0.0,0.0,0.0,0.0,0.0,0.0,0.0,0.0,0.0,-25.703977584838867,0.0,0.0,-0.015030848793685436,0.0,0.0,0.0,7106.09521484375,-14762.7529296875,-112.87975311279297,0.0,0.0,45.0,0.0,0.0
1731876096980.0,0.0,0.0,-20.0,0.0,0.0,0.0,0.0,0.0,0.0,0.0,0.0,0.0,0.0,0.0,0.0,-25.721200942993164,0.0,0.0,-0.009170567616820335,0.0,0.0,0.0,7110.53173828125,-14760.6171875,-68.86978912353516,0.0,0.0,45.0,0.0,0.0
1731876097014.0,0.0,0.0,-20.0,0.0,0.0,0.0,0.0,0.0,0.0,0.0,0.0,0.0,0.0,0.0,0.0,-25.73171043395996,0.0,0.0,0.002631064970046282,0.0,0.0,0.0,7113.240234375,-14759.3125,19.758962631225586,0.0,0.0,45.0,0.0,0.0
1731876097047.0,0.0,0.0,-20.0,0.0,0.0,0.0,0.0,0.0,0.0,0.0,0.0,0.0,0.0,0.0,0.0,-25.7189998626709,0.0,0.0,0.014290484599769115,0.0,0.0,0.0,7109.9658203125,-14760.888671875,107.31971740722656,0.0,0.0,45.0,0.0,0.0
1731876097064.0,0.0,0.0,-20.0,0.0,0.0,0.0,0.0,0.0,0.0,0.0,0.0,0.0,0.0,0.0,0.0,-25.702621459960938,0.0,0.0,0.020190004259347916,0.0,0.0,0.0,7105.74658203125,-14762.921875,151.62435913085938,0.0,0.0,45.0,0.0,0.0
1731876097080.0,0.0,0.0,-20.0,0.0,0.0,0.0,0.0,0.0,0.0,0.0,0.0,0.0,0.0,0.0,0.0,-25.67948341369629,0.0,0.0,0.02604105696082115,0.0,0.0,0.0,7099.783203125,-14765.7880859375,195.5650177001953,0.0,0.0,45.0,0.0,0.0
1731876097114.0,0.0,0.0,-20.0,0.0,0.0,0.0,0.0,0.0,0.0,0.0,0.0,0.0,0.0,0.0,0.0,-25.64964485168457,0.0,0.0,0.037762392312288284,0.0,0.0,0.0,7092.09326171875,-14769.4833984375,283.5907287597656,0.0,0.0,45.0,0.0,0.0
1731876097147.0,0.0,0.0,-20.0,0.0,0.0,0.0,0.0,0.0,0.0,0.0,0.0,0.0,0.0,0.0,0.0,-25.556547164916992,0.0,0.0,0.04932458698749542,0.0,0.0,0.0,7068.08544921875,-14780.98828125,370.4213562011719,0.0,0.0,45.0,0.0,0.0
1731876097164.0,0.0,0.0,-20.0,0.0,0.0,0.0,0.0,0.0,0.0,0.0,0.0,0.0,0.0,0.0,0.0,-25.500022888183594,0.0,0.0,0.05513376370072365,0.0,0.0,0.0,7053.5,-14787.955078125,414.0475158691406,0.0,0.0,45.0,0.0,0.0
1731876097164.0,0.0,0.0,-20.0,0.0,0.0,0.0,0.0,0.0,0.0,0.0,0.0,0.0,0.0,0.0,0.0,-25.500022888183594,0.0,0.0,0.05513376370072365,0.0,0.0,0.0,7053.5,-14787.955078125,414.0475158691406,0.0,0.0,45.0,0.0,0.0
1731876097214.0,0.0,0.0,-20.0,0.0,0.0,0.0,0.0,0.0,0.0,0.0,0.0,0.0,0.0,0.0,0.0,-25.366968154907227,0.0,0.0,0.07243083417415619,0.0,0.0,0.0,7019.13916015625,-14804.294921875,543.9462890625,0.0,0.0,45.0,0.0,0.0
1731876097231.0,0.0,0.0,-20.0,0.0,0.0,0.0,0.0,0.0,0.0,0.0,0.0,0.0,0.0,0.0,0.0,-25.28396987915039,0.0,0.0,0.07816874980926514,0.0,0.0,0.0,6997.68701171875,-14814.447265625,587.037353515625,0.0,0.0,45.0,0.0,0.0
1731876097264.0,0.0,0.0,-20.0,0.0,0.0,0.0,0.0,0.0,0.0,0.0,0.0,0.0,0.0,0.0,0.0,-25.09832000732422,0.0,0.0,0.08949446678161621,0.0,0.0,0.0,6949.6484375,-14837.0419921875,672.092041015625,0.0,0.0,45.0,0.0,0.0
1731876097264.0,0.0,0.0,-20.0,0.0,0.0,0.0,0.0,0.0,0.0,0.0,0.0,0.0,0.0,0.0,0.0,-25.09832000732422,0.0,0.0,0.08949446678161621,0.0,0.0,0.0,6949.6484375,-14837.0419921875,672.092041015625,0.0,0.0,45.0,0.0,0.0
1731876097314.0,0.0,0.0,-20.0,0.0,0.0,0.0,0.0,0.0,0.0,0.0,0.0,0.0,0.0,0.0,0.0,-24.886693954467773,0.0,0.0,0.10632484406232834,0.0,0.0,0.0,6894.80029296875,-14862.611328125,798.4860229492188,0.0,0.0,45.0,0.0,0.0
1731876097330.0,0.0,0.0,-20.0,0.0,0.0,0.0,0.0,0.0,0.0,0.0,0.0,0.0,0.0,0.0,0.0,-24.764856338500977,0.0,0.0,0.11189853399991989,0.0,0.0,0.0,6863.17919921875,-14877.2392578125,840.3436889648438,0.0,0.0,45.0,0.0,0.0
1731876097364.0,0.0,0.0,-20.0,0.0,0.0,0.0,0.0,0.0,0.0,0.0,0.0,0.0,0.0,0.0,0.0,-24.501937866210938,0.0,0.0,0.12295082211494446,0.0,0.0,0.0,6794.83935546875,-14908.5751953125,923.344970703125,0.0,0.0,45.0,0.0,0.0
1731876097364.0,0.0,0.0,-20.0,0.0,0.0,0.0,0.0,0.0,0.0,0.0,0.0,0.0,0.0,0.0,0.0,-24.501937866210938,0.0,0.0,0.12295082211494446,0.0,0.0,0.0,6794.83935546875,-14908.5751953125,923.344970703125,0.0,0.0,45.0,0.0,0.0
1731876097381.0,0.0,0.0,-20.0,0.0,0.0,0.0,0.0,0.0,0.0,0.0,0.0,0.0,0.0,0.0,0.0,-24.361045837402344,0.0,0.0,0.12846624851226807,0.0,0.0,0.0,6758.1572265625,-14925.240234375,964.76513671875,0.0,0.0,45.0,0.0,0.0
1731876097431.0,0.0,0.0,-20.0,0.0,0.0,0.0,0.0,0.0,0.0,0.0,0.0,0.0,0.0,0.0,0.0,-24.054201126098633,0.0,0.0,0.1446419060230255,0.0,0.0,0.0,6678.12939453125,-14961.216796875,1086.2421875,0.0,0.0,45.0,0.0,0.0
1731876097447.0,0.0,0.0,-20.0,0.0,0.0,0.0,0.0,0.0,0.0,0.0,0.0,0.0,0.0,0.0,0.0,-23.88845443725586,0.0,0.0,0.1499069780111313,0.0,0.0,0.0,6634.82177734375,-14980.4736328125,1125.7822265625,0.0,0.0,45.0,0.0,0.0
1731876097464.0,0.0,0.0,-20.0,0.0,0.0,0.0,0.0,0.0,0.0,0.0,0.0,0.0,0.0,0.0,0.0,-23.716672897338867,0.0,0.0,0.1552562266588211,0.0,0.0,0.0,6589.87744140625,-15000.298828125,1165.9544677734375,0.0,0.0,45.0,0.0,0.0
1731876097480.0,0.0,0.0,-20.0,0.0,0.0,0.0,0.0,0.0,0.0,0.0,0.0,0.0,0.0,0.0,0.0,-23.53876304626465,0.0,0.0,0.16039898991584778,0.0,0.0,0.0,6543.2685546875,-15020.6875,1204.575927734375,0.0,0.0,45.0,0.0,0.0
1731876097514.0,0.0,0.0,-20.0,0.0,0.0,0.0,0.0,0.0,0.0,0.0,0.0,0.0,0.0,0.0,0.0,-23.35495948791504,0.0,0.0,0.1706569641828537,0.0,0.0,0.0,6495.04931640625,-15041.6025390625,1281.612060546875,0.0,0.0,45.0,0.0,0.0
1731876097547.0,0.0,0.0,-20.0,0.0,0.0,0.0,0.0,0.0,0.0,0.0,0.0,0.0,0.0,0.0,0.0,-22.957860946655273,0.0,0.0,0.18093006312847137,0.0,0.0,0.0,6390.6455078125,-15086.255859375,1358.76171875,0.0,0.0,45.0,0.0,0.0
1731876097564.0,0.0,0.0,-20.0,0.0,0.0,0.0,0.0,0.0,0.0,0.0,0.0,0.0,0.0,0.0,0.0,-22.750530242919922,0.0,0.0,0.1859307885169983,0.0,0.0,0.0,6336.01220703125,-15109.2822265625,1396.3165283203125,0.0,0.0,45.0,0.0,0.0
1731876097581.0,0.0,0.0,-20.0,0.0,0.0,0.0,0.0,0.0,0.0,0.0,0.0,0.0,0.0,0.0,0.0,-22.53746795654297,0.0,0.0,0.19088870286941528,0.0,0.0,0.0,6279.78271484375,-15132.73828125,1433.5498046875,0.0,0.0,45.0,0.0,0.0
1731876097614.0,0.0,0.0,-20.0,0.0,0.0,0.0,0.0,0.0,0.0,0.0,0.0,0.0,0.0,0.0,0.0,-22.318723678588867,0.0,0.0,0.20065179467201233,0.0,0.0,0.0,6221.96337890625,-15156.6025390625,1506.869384765625,0.0,0.0,45.0,0.0,0.0
1731876097631.0,0.0,0.0,-20.0,0.0,0.0,0.0,0.0,0.0,0.0,0.0,0.0,0.0,0.0,0.0,0.0,-22.088796615600586,0.0,0.0,0.20544536411762238,0.0,0.0,0.0,6161.09033203125,-15181.4501953125,1542.868408203125,0.0,0.0,45.0,0.0,0.0
1731876097664.0,0.0,0.0,-20.0,0.0,0.0,0.0,0.0,0.0,0.0,0.0,0.0,0.0,0.0,0.0,0.0,-21.612627029418945,0.0,0.0,0.2148163616657257,0.0,0.0,0.0,6034.7099609375,-15232.12890625,1613.243408203125,0.0,0.0,45.0,0.0,0.0
1731876097664.0,0.0,0.0,-20.0,0.0,0.0,0.0,0.0,0.0,0.0,0.0,0.0,0.0,0.0,0.0,0.0,-21.612627029418945,0.0,0.0,0.2148163616657257,0.0,0.0,0.0,6034.7099609375,-15232.12890625,1613.243408203125,0.0,0.0,45.0,0.0,0.0
1731876097714.0,0.0,0.0,-20.0,0.0,0.0,0.0,0.0,0.0,0.0,0.0,0.0,0.0,0.0,0.0,0.0,-21.115089416503906,0.0,0.0,0.2284110188484192,0.0,0.0,0.0,5902.21337890625,-15283.95703125,1715.3375244140625,0.0,0.0,45.0,0.0,0.0
1731876097731.0,0.0,0.0,-20.0,0.0,0.0,0.0,0.0,0.0,0.0,0.0,0.0,0.0,0.0,0.0,0.0,-20.853349685668945,0.0,0.0,0.23283390700817108,0.0,0.0,0.0,5832.33154296875,-15310.759765625,1748.5528564453125,0.0,0.0,45.0,0.0,0.0
1731876097747.0,0.0,0.0,-20.0,0.0,0.0,0.0,0.0,0.0,0.0,0.0,0.0,0.0,0.0,0.0,0.0,-20.5865421295166,0.0,0.0,0.23714447021484375,0.0,0.0,0.0,5760.97119140625,-15337.7529296875,1780.9246826171875,0.0,0.0,45.0,0.0,0.0
1731876097764.0,0.0,0.0,-20.0,0.0,0.0,0.0,0.0,0.0,0.0,0.0,0.0,0.0,0.0,0.0,0.0,-20.31479263305664,0.0,0.0,0.2414916306734085,0.0,0.0,0.0,5688.16064453125,-15364.904296875,1813.5712890625,0.0,0.0,45.0,0.0,0.0
1731876097781.0,0.0,0.0,-20.0,0.0,0.0,0.0,0.0,0.0,0.0,0.0,0.0,0.0,0.0,0.0,0.0,-20.038063049316406,0.0,0.0,0.24573911726474762,0.0,0.0,0.0,5613.884765625,-15392.1982421875,1845.4693603515625,0.0,0.0,45.0,0.0,0.0
1731876097831.0,0.0,0.0,-20.0,0.0,0.0,0.0,0.0,0.0,0.0,0.0,0.0,0.0,0.0,0.0,0.0,-19.465452194213867,0.0,0.0,0.25793054699897766,0.0,0.0,0.0,5459.7783203125,-15447.5341796875,1937.0255126953125,0.0,0.0,45.0,0.0,0.0
1731876097847.0,0.0,0.0,-20.0,0.0,0.0,0.0,0.0,0.0,0.0,0.0,0.0,0.0,0.0,0.0,0.0,-19.169883728027344,0.0,0.0,0.26187512278556824,0.0,0.0,0.0,5380.017578125,-15475.4912109375,1966.648681640625,0.0,0.0,45.0,0.0,0.0
1731876097864.0,0.0,0.0,-20.0,0.0,0.0,0.0,0.0,0.0,0.0,0.0,0.0,0.0,0.0,0.0,0.0,-18.86979866027832,0.0,0.0,0.2657747268676758,0.0,0.0,0.0,5298.89208984375,-15503.45703125,1995.9342041015625,0.0,0.0,45.0,0.0,0.0
1731876097881.0,0.0,0.0,-20.0,0.0,0.0,0.0,0.0,0.0,0.0,0.0,0.0,0.0,0.0,0.0,0.0,-18.565242767333984,0.0,0.0,0.26952359080314636,0.0,0.0,0.0,5216.40869140625,-15531.4052734375,2024.0877685546875,0.0,0.0,45.0,0.0,0.0
1731876097914.0,0.0,0.0,-20.0,0.0,0.0,0.0,0.0,0.0,0.0,0.0,0.0,0.0,0.0,0.0,0.0,-18.256391525268555,0.0,0.0,0.2769656777381897,0.0,0.0,0.0,5132.61181640625,-15559.2978515625,2079.976806640625,0.0,0.0,45.0,0.0,0.0
1731876097948.0,0.0,0.0,-20.0,0.0,0.0,0.0,0.0,0.0,0.0,0.0,0.0,0.0,0.0,0.0,0.0,-17.617544174194336,0.0,0.0,0.2840045094490051,0.0,0.0,0.0,4958.81005859375,-15615.55859375,2132.837646484375,0.0,0.0,45.0,0.0,0.0
1731876097964.0,0.0,0.0,-20.0,0.0,0.0,0.0,0.0,0.0,0.0,0.0,0.0,0.0,0.0,0.0,0.0,-17.292095184326172,0.0,0.0,0.2873971164226532,0.0,0.0,0.0,4870.03173828125,-15643.47265625,2158.315673828125,0.0,0.0,45.0,0.0,0.0
1731876097964.0,0.0,0.0,-20.0,0.0,0.0,0.0,0.0,0.0,0.0,0.0,0.0,0.0,0.0,0.0,0.0,-17.292095184326172,0.0,0.0,0.2873971164226532,0.0,0.0,0.0,4870.03173828125,-15643.47265625,2158.315673828125,0.0,0.0,45.0,0.0,0.0
1731876098015.0,0.0,0.0,-20.0,0.0,0.0,0.0,0.0,0.0,0.0,0.0,0.0,0.0,0.0,0.0,0.0,-16.62956428527832,0.0,0.0,0.2971474826335907,0.0,0.0,0.0,4688.8193359375,-15698.7392578125,2231.53955078125,0.0,0.0,45.0,0.0,0.0
1731876098031.0,0.0,0.0,-20.0,0.0,0.0,0.0,0.0,0.0,0.0,0.0,0.0,0.0,0.0,0.0,0.0,-16.289060592651367,0.0,0.0,0.30023878812789917,0.0,0.0,0.0,4595.44140625,-15726.328125,2254.7548828125,0.0,0.0,45.0,0.0,0.0
1731876098064.0,0.0,0.0,-20.0,0.0,0.0,0.0,0.0,0.0,0.0,0.0,0.0,0.0,0.0,0.0,0.0,-15.597541809082031,0.0,0.0,0.30614230036735535,0.0,0.0,0.0,4405.3056640625,-15780.64453125,2299.089599609375,0.0,0.0,45.0,0.0,0.0
1731876098064.0,0.0,0.0,-20.0,0.0,0.0,0.0,0.0,0.0,0.0,0.0,0.0,0.0,0.0,0.0,0.0,-15.597541809082031,0.0,0.0,0.30614230036735535,0.0,0.0,0.0,4405.3056640625,-15780.64453125,2299.089599609375,0.0,0.0,45.0,0.0,0.0
1731876098115.0,0.0,0.0,-20.0,0.0,0.0,0.0,0.0,0.0,0.0,0.0,0.0,0.0,0.0,0.0,0.0,-14.89262866973877,0.0,0.0,0.31438571214675903,0.0,0.0,0.0,4210.8271484375,-15833.6484375,2360.99658203125,0.0,0.0,45.0,0.0,0.0
1731876098131.0,0.0,0.0,-20.0,0.0,0.0,0.0,0.0,0.0,0.0,0.0,0.0,0.0,0.0,0.0,0.0,-14.532368659973145,0.0,0.0,0.31697139143943787,0.0,0.0,0.0,4111.18701171875,-15859.810546875,2380.41455078125,0.0,0.0,45.0,0.0,0.0
1731876098148.0,0.0,0.0,-20.0,0.0,0.0,0.0,0.0,0.0,0.0,0.0,0.0,0.0,0.0,0.0,0.0,-14.169145584106445,0.0,0.0,0.3194544315338135,0.0,0.0,0.0,4010.562255859375,-15885.5546875,2399.06201171875,0.0,0.0,45.0,0.0,0.0
1731876098165.0,0.0,0.0,-20.0,0.0,0.0,0.0,0.0,0.0,0.0,0.0,0.0,0.0,0.0,0.0,0.0,-13.803078651428223,0.0,0.0,0.32183554768562317,0.0,0.0,0.0,3908.987060546875,-15910.853515625,2416.94384765625,0.0,0.0,45.0,0.0,0.0
1731876098181.0,0.0,0.0,-20.0,0.0,0.0,0.0,0.0,0.0,0.0,0.0,0.0,0.0,0.0,0.0,0.0,-13.434280395507812,0.0,0.0,0.32415688037872314,0.0,0.0,0.0,3806.49267578125,-15935.685546875,2434.376708984375,0.0,0.0,45.0,0.0,0.0
1731876098231.0,0.0,0.0,-20.0,0.0,0.0,0.0,0.0,0.0,0.0,0.0,0.0,0.0,0.0,0.0,0.0,-12.68639850616455,0.0,0.0,0.3305140733718872,0.0,0.0,0.0,3598.166259765625,-15984.0126953125,2482.118408203125,0.0,0.0,45.0,0.0,0.0
1731876098248.0,0.0,0.0,-20.0,0.0,0.0,0.0,0.0,0.0,0.0,0.0,0.0,0.0,0.0,0.0,0.0,-12.307658195495605,0.0,0.0,0.3324538469314575,0.0,0.0,0.0,3492.429443359375,-16007.4482421875,2496.68603515625,0.0,0.0,45.0,0.0,0.0
1731876098265.0,0.0,0.0,-20.0,0.0,0.0,0.0,0.0,0.0,0.0,0.0,0.0,0.0,0.0,0.0,0.0,-11.926692962646484,0.0,0.0,0.3342910706996918,0.0,0.0,0.0,3385.917724609375,-16030.31640625,2510.483154296875,0.0,0.0,45.0,0.0,0.0
1731876098282.0,0.0,0.0,-20.0,0.0,0.0,0.0,0.0,0.0,0.0,0.0,0.0,0.0,0.0,0.0,0.0,-11.543622016906738,0.0,0.0,0.3360455632209778,0.0,0.0,0.0,3278.666748046875,-16052.595703125,2523.6591796875,0.0,0.0,45.0,0.0,0.0
1731876098332.0,0.0,0.0,-20.0,0.0,0.0,0.0,0.0,0.0,0.0,0.0,0.0,0.0,0.0,0.0,0.0,-10.76978588104248,0.0,0.0,0.34076613187789917,0.0,0.0,0.0,3061.568359375,-16095.41015625,2559.110107421875,0.0,0.0,45.0,0.0,0.0
1731876098348.0,0.0,0.0,-20.0,0.0,0.0,0.0,0.0,0.0,0.0,0.0,0.0,0.0,0.0,0.0,0.0,-10.37929630279541,0.0,0.0,0.34212496876716614,0.0,0.0,0.0,2951.802490234375,-16115.9033203125,2569.314697265625,0.0,0.0,45.0,0.0,0.0
1731876098365.0,0.0,0.0,-20.0,0.0,0.0,0.0,0.0,0.0,0.0,0.0,0.0,0.0,0.0,0.0,0.0,-9.987251281738281,0.0,0.0,0.34339994192123413,0.0,0.0,0.0,2841.46142578125,-16135.7236328125,2578.8896484375,0.0,0.0,45.0,0.0,0.0
1731876098382.0,0.0,0.0,-20.0,0.0,0.0,0.0,0.0,0.0,0.0,0.0,0.0,0.0,0.0,0.0,0.0,-9.593743324279785,0.0,0.0,0.34458860754966736,0.0,0.0,0.0,2730.5751953125,-16154.857421875,2587.81640625,0.0,0.0,45.0,0.0,0.0
1731876098432.0,0.0,0.0,-20.0,0.0,0.0,0.0,0.0,0.0,0.0,0.0,0.0,0.0,0.0,0.0,0.0,-8.80162239074707,0.0,0.0,0.34756579995155334,0.0,0.0,0.0,2506.978515625,-16191.0625,2610.1748046875,0.0,0.0,45.0,0.0,0.0
1731876098448.0,0.0,0.0,-20.0,0.0,0.0,0.0,0.0,0.0,0.0,0.0,0.0,0.0,0.0,0.0,0.0,-8.403341293334961,0.0,0.0,0.3483628034591675,0.0,0.0,0.0,2394.36962890625,-16208.0986328125,2616.16015625,0.0,0.0,45.0,0.0,0.0
1731876098465.0,0.0,0.0,-20.0,0.0,0.0,0.0,0.0,0.0,0.0,0.0,0.0,0.0,0.0,0.0,0.0,-8.004146575927734,0.0,0.0,0.3490673899650574,0.0,0.0,0.0,2281.38623046875,-16224.3857421875,2621.451416015625,0.0,0.0,45.0,0.0,0.0
1731876098482.0,0.0,0.0,-20.0,0.0,0.0,0.0,0.0,0.0,0.0,0.0,0.0,0.0,0.0,0.0,0.0,-7.6041460037231445,0.0,0.0,0.3496716320514679,0.0,0.0,0.0,2168.06396484375,-16239.9189453125,2625.9892578125,0.0,0.0,45.0,0.0,0.0
1731876098515.0,0.0,0.0,-20.0,0.0,0.0,0.0,0.0,0.0,0.0,0.0,0.0,0.0,0.0,0.0,0.0,-7.203452110290527,0.0,0.0,0.35059288144111633,0.0,0.0,0.0,2054.43896484375,-16254.68359375,2632.90771484375,0.0,0.0,45.0,0.0,0.0
1731876098548.0,0.0,0.0,-20.0,0.0,0.0,0.0,0.0,0.0,0.0,0.0,0.0,0.0,0.0,0.0,0.0,-6.39959192276001,0.0,0.0,0.3511267602443695,0.0,0.0,0.0,1826.191162109375,-16281.9052734375,2636.917236328125,0.0,0.0,45.0,0.0,0.0
1731876098565.0,0.0,0.0,-20.0,0.0,0.0,0.0,0.0,0.0,0.0,0.0,0.0,0.0,0.0,0.0,0.0,-5.9972310066223145,0.0,0.0,0.3512466251850128,0.0,0.0,0.0,1711.806884765625,-16294.3291015625,2637.8173828125,0.0,0.0,45.0,0.0,0.0
1731876098565.0,0.0,0.0,-20.0,0.0,0.0,0.0,0.0,0.0,0.0,0.0,0.0,0.0,0.0,0.0,0.0,-5.9972310066223145,0.0,0.0,0.3512466251850128,0.0,0.0,0.0,1711.806884765625,-16294.3291015625,2637.8173828125,0.0,0.0,45.0,0.0,0.0
1731876098615.0,0.0,0.0,-20.0,0.0,0.0,0.0,0.0,0.0,0.0,0.0,0.0,0.0,0.0,0.0,0.0,-5.192207336425781,0.0,0.0,0.3510173559188843,0.0,0.0,0.0,1482.7049560546875,-16316.771484375,2636.095458984375,0.0,0.0,45.0,0.0,0.0
1731876098632.0,0.0,0.0,-20.0,0.0,0.0,0.0,0.0,0.0,0.0,0.0,0.0,0.0,0.0,0.0,0.0,-4.789971351623535,0.0,0.0,0.35074687004089355,0.0,0.0,0.0,1368.1201171875,-16326.7783203125,2634.064208984375,0.0,0.0,45.0,0.0,0.0
1731876098665.0,0.0,0.0,-20.0,0.0,0.0,0.0,0.0,0.0,0.0,0.0,0.0,0.0,0.0,0.0,0.0,-3.9865424633026123,0.0,0.0,0.3499131202697754,0.0,0.0,0.0,1139.0511474609375,-16344.357421875,2627.802734375,0.0,0.0,45.0,0.0,0.0
1731876098665.0,0.0,0.0,-20.0,0.0,0.0,0.0,0.0,0.0,0.0,0.0,0.0,0.0,0.0,0.0,0.0,-3.9865424633026123,0.0,0.0,0.3499131202697754,0.0,0.0,0.0,1139.0511474609375,-16344.357421875,2627.802734375,0.0,0.0,45.0,0.0,0.0
1731876098715.0,0.0,0.0,-20.0,0.0,0.0,0.0,0.0,0.0,0.0,0.0,0.0,0.0,0.0,0.0,0.0,-3.1852424144744873,0.0,0.0,0.34793785214424133,0.0,0.0,0.0,910.3661499023438,-16358.6875,2612.96875,0.0,0.0,45.0,0.0,0.0
1731876098732.0,0.0,0.0,-20.0,0.0,0.0,0.0,0.0,0.0,0.0,0.0,0.0,0.0,0.0,0.0,0.0,-2.7865352630615234,0.0,0.0,0.3470717966556549,0.0,0.0,0.0,796.5089111328125,-16364.626953125,2606.46484375,0.0,0.0,45.0,0.0,0.0
1731876098765.0,0.0,0.0,-20.0,0.0,0.0,0.0,0.0,0.0,0.0,0.0,0.0,0.0,0.0,0.0,0.0,-1.9921901226043701,0.0,0.0,0.34508252143859863,0.0,0.0,0.0,569.5614013671875,-16374.0966796875,2591.525634765625,0.0,0.0,45.0,0.0,0.0
1731876098765.0,0.0,0.0,-20.0,0.0,0.0,0.0,0.0,0.0,0.0,0.0,0.0,0.0,0.0,0.0,0.0,-1.9921901226043701,0.0,0.0,0.34508252143859863,0.0,0.0,0.0,569.5614013671875,-16374.0966796875,2591.525634765625,0.0,0.0,45.0,0.0,0.0
1731876098782.0,0.0,0.0,-20.0,0.0,0.0,0.0,0.0,0.0,0.0,0.0,0.0,0.0,0.0,0.0,0.0,-1.5967546701431274,0.0,0.0,0.34394505620002747,0.0,0.0,0.0,456.54046630859375,-16377.63671875,2582.9833984375,0.0,0.0,45.0,0.0,0.0
1731876098832.0,0.0,0.0,-20.0,0.0,0.0,0.0,0.0,0.0,0.0,0.0,0.0,0.0,0.0,0.0,0.0,-0.8115274310112,0.0,0.0,0.3399302661418915,0.0,0.0,0.0,232.05239868164062,-16382.3564453125,2552.832763671875,0.0,0.0,45.0,0.0,0.0
1731876098848.0,0.0,0.0,-20.0,0.0,0.0,0.0,0.0,0.0,0.0,0.0,0.0,0.0,0.0,0.0,0.0,-0.4219960570335388,0.0,0.0,0.3384135663509369,0.0,0.0,0.0,120.6706771850586,-16383.5556640625,2541.442626953125,0.0,0.0,45.0,0.0,0.0
1731876098865.0,0.0,0.0,-20.0,0.0,0.0,0.0,0.0,0.0,0.0,0.0,0.0,0.0,0.0,0.0,0.0,-0.03420265391469002,0.0,0.0,0.3367944359779358,0.0,0.0,0.0,9.780409812927246,-16383.9970703125,2529.283203125,0.0,0.0,45.0,0.0,0.0
1731876098882.0,0.0,0.0,-20.0,0.0,0.0,0.0,0.0,0.0,0.0,0.0,0.0,0.0,0.0,0.0,0.0,0.35174560546875,0.0,0.0,0.33509111404418945,0.0,0.0,0.0,-100.58268737792969,-16383.69140625,2516.491455078125,0.0,0.0,45.0,0.0,0.0
1731876098915.0,0.0,0.0,-20.0,0.0,0.0,0.0,0.0,0.0,0.0,0.0,0.0,0.0,0.0,0.0,0.0,0.7357177734375,0.0,0.0,0.33137238025665283,0.0,0.0,0.0,-210.376220703125,-16382.6494140625,2488.564208984375,0.0,0.0,45.0,0.0,0.0
1731876098949.0,0.0,0.0,-20.0,0.0,0.0,0.0,0.0,0.0,0.0,0.0,0.0,0.0,0.0,0.0,0.0,1.492889404296875,0.0,0.0,0.327297180891037,0.0,0.0,0.0,-426.85052490234375,-16378.4384765625,2457.9599609375,0.0,0.0,45.0,0.0,0.0
1731876098965.0,0.0,0.0,-20.0,0.0,0.0,0.0,0.0,0.0,0.0,0.0,0.0,0.0,0.0,0.0,0.0,1.867950439453125,0.0,0.0,0.3251468241214752,0.0,0.0,0.0,-534.0546875,-16375.2939453125,2441.81103515625,0.0,0.0,45.0,0.0,0.0
1731876098982.0,0.0,0.0,-20.0,0.0,0.0,0.0,0.0,0.0,0.0,0.0,0.0,0.0,0.0,0.0,0.0,2.24053955078125,0.0,0.0,0.32284027338027954,0.0,0.0,0.0,-640.5296630859375,-16371.474609375,2424.4892578125,0.0,0.0,45.0,0.0,0.0
1731876099015.0,0.0,0.0,-20.0,0.0,0.0,0.0,0.0,0.0,0.0,0.0,0.0,0.0,0.0,0.0,0.0,2.610504150390625,0.0,0.0,0.31806644797325134,0.0,0.0,0.0,-746.2278442382812,-16366.9970703125,2388.638427734375,0.0,0.0,45.0,0.0,0.0
1731876099049.0,0.0,0.0,-20.0,0.0,0.0,0.0,0.0,0.0,0.0,0.0,0.0,0.0,0.0,0.0,0.0,3.336517333984375,0.0,0.0,0.3128981590270996,0.0,0.0,0.0,-953.5538330078125,-16356.2265625,2349.8251953125,0.0,0.0,45.0,0.0,0.0
1731876099065.0,0.0,0.0,-20.0,0.0,0.0,0.0,0.0,0.0,0.0,0.0,0.0,0.0,0.0,0.0,0.0,3.695098876953125,0.0,0.0,0.31020477414131165,0.0,0.0,0.0,-1055.8988037109375,-16349.9384765625,2329.59814453125,0.0,0.0,45.0,0.0,0.0
1731876099082.0,0.0,0.0,-20.0,0.0,0.0,0.0,0.0,0.0,0.0,0.0,0.0,0.0,0.0,0.0,0.0,4.050567626953125,0.0,0.0,0.3073740303516388,0.0,0.0,0.0,-1157.314453125,-16343.07421875,2308.339599609375,0.0,0.0,45.0,0.0,0.0
1731876099115.0,0.0,0.0,-20.0,0.0,0.0,0.0,0.0,0.0,0.0,0.0,0.0,0.0,0.0,0.0,0.0,4.40277099609375,0.0,0.0,0.30157631635665894,0.0,0.0,0.0,-1257.754638671875,-16335.6513671875,2264.799560546875,0.0,0.0,45.0,0.0,0.0
1731876099132.0,0.0,0.0,-20.0,0.0,0.0,0.0,0.0,0.0,0.0,0.0,0.0,0.0,0.0,0.0,0.0,4.74835205078125,0.0,0.0,0.2984711229801178,0.0,0.0,0.0,-1356.2601318359375,-16327.76953125,2241.47998046875,0.0,0.0,45.0,0.0,0.0
1731876099166.0,0.0,0.0,-20.0,0.0,0.0,0.0,0.0,0.0,0.0,0.0,0.0,0.0,0.0,0.0,0.0,5.4288330078125,0.0,0.0,0.29215776920318604,0.0,0.0,0.0,-1550.0787353515625,-16310.5087890625,2194.067626953125,0.0,0.0,45.0,0.0,0.0
1731876099166.0,0.0,0.0,-20.0,0.0,0.0,0.0,0.0,0.0,0.0,0.0,0.0,0.0,0.0,0.0,0.0,5.4288330078125,0.0,0.0,0.29215776920318604,0.0,0.0,0.0,-1550.0787353515625,-16310.5087890625,2194.067626953125,0.0,0.0,45.0,0.0,0.0
1731876099216.0,0.0,0.0,-20.0,0.0,0.0,0.0,0.0,0.0,0.0,0.0,0.0,0.0,0.0,0.0,0.0,6.0946044921875,0.0,0.0,0.2820287048816681,0.0,0.0,0.0,-1739.4964599609375,-16291.396484375,2117.99951171875,0.0,0.0,45.0,0.0,0.0
1731876099232.0,0.0,0.0,-20.0,0.0,0.0,0.0,0.0,0.0,0.0,0.0,0.0,0.0,0.0,0.0,0.0,6.41778564453125,0.0,0.0,0.27851346135139465,0.0,0.0,0.0,-1831.3612060546875,-16281.326171875,2091.6005859375,0.0,0.0,45.0,0.0,0.0
1731876099266.0,0.0,0.0,-20.0,0.0,0.0,0.0,0.0,0.0,0.0,0.0,0.0,0.0,0.0,0.0,0.0,7.05194091796875,0.0,0.0,0.27118563652038574,0.0,0.0,0.0,-2011.448486328125,-16260.0595703125,2036.5694580078125,0.0,0.0,45.0,0.0,0.0
1731876099282.0,0.0,0.0,-20.0,0.0,0.0,0.0,0.0,0.0,0.0,0.0,0.0,0.0,0.0,0.0,0.0,7.362701416015625,0.0,0.0,0.2674625813961029,0.0,0.0,0.0,-2099.60986328125,-16248.91015625,2008.60986328125,0.0,0.0,45.0,0.0,0.0
1731876099299.0,0.0,0.0,-20.0,0.0,0.0,0.0,0.0,0.0,0.0,0.0,0.0,0.0,0.0,0.0,0.0,7.669189453125,0.0,0.0,0.26358163356781006,0.0,0.0,0.0,-2186.49853515625,-16237.4462890625,1979.46435546875,0.0,0.0,45.0,0.0,0.0
1731876099333.0,0.0,0.0,-20.0,0.0,0.0,0.0,0.0,0.0,0.0,0.0,0.0,0.0,0.0,0.0,0.0,7.97125244140625,0.0,0.0,0.2556765675544739,0.0,0.0,0.0,-2272.0712890625,-16225.693359375,1920.098388671875,0.0,0.0,45.0,0.0,0.0
1731876099366.0,0.0,0.0,-20.0,0.0,0.0,0.0,0.0,0.0,0.0,0.0,0.0,0.0,0.0,0.0,0.0,8.55267333984375,0.0,0.0,0.2475392371416092,0.0,0.0,0.0,-2436.60498046875,-16201.802734375,1858.988037109375,0.0,0.0,45.0,0.0,0.0
1731876099366.0,0.0,0.0,-20.0,0.0,0.0,0.0,0.0,0.0,0.0,0.0,0.0,0.0,0.0,0.0,0.0,8.55267333984375,0.0,0.0,0.2475392371416092,0.0,0.0,0.0,-2436.60498046875,-16201.802734375,1858.988037109375,0.0,0.0,45.0,0.0,0.0
1731876099382.0,0.0,0.0,-20.0,0.0,0.0,0.0,0.0,0.0,0.0,0.0,0.0,0.0,0.0,0.0,0.0,8.836334228515625,0.0,0.0,0.2433445006608963,0.0,0.0,0.0,-2516.787109375,-16189.541015625,1827.486083984375,0.0,0.0,45.0,0.0,0.0
1731876099432.0,0.0,0.0,-20.0,0.0,0.0,0.0,0.0,0.0,0.0,0.0,0.0,0.0,0.0,0.0,0.0,9.38421630859375,0.0,0.0,0.23040668666362762,0.0,0.0,0.0,-2671.479736328125,-16164.734375,1730.3248291015625,0.0,0.0,45.0,0.0,0.0
1731876099449.0,0.0,0.0,-20.0,0.0,0.0,0.0,0.0,0.0,0.0,0.0,0.0,0.0,0.0,0.0,0.0,9.64825439453125,0.0,0.0,0.22591577470302582,0.0,0.0,0.0,-2745.94384765625,-16152.251953125,1696.5986328125,0.0,0.0,45.0,0.0,0.0
1731876099482.0,0.0,0.0,-20.0,0.0,0.0,0.0,0.0,0.0,0.0,0.0,0.0,0.0,0.0,0.0,0.0,10.160797119140625,0.0,0.0,0.21686166524887085,0.0,0.0,0.0,-2890.32275390625,-16127.041015625,1628.6033935546875,0.0,0.0,45.0,0.0,0.0
1731876099482.0,0.0,0.0,-20.0,0.0,0.0,0.0,0.0,0.0,0.0,0.0,0.0,0.0,0.0,0.0,0.0,10.160797119140625,0.0,0.0,0.21686166524887085,0.0,0.0,0.0,-2890.32275390625,-16127.041015625,1628.6033935546875,0.0,0.0,45.0,0.0,0.0
1731876099533.0,0.0,0.0,-20.0,0.0,0.0,0.0,0.0,0.0,0.0,0.0,0.0,0.0,0.0,0.0,0.0,10.652435302734375,0.0,0.0,0.20272167026996613,0.0,0.0,0.0,-3028.595947265625,-16101.6474609375,1522.413818359375,0.0,0.0,45.0,0.0,0.0
1731876099549.0,0.0,0.0,-20.0,0.0,0.0,0.0,0.0,0.0,0.0,0.0,0.0,0.0,0.0,0.0,0.0,10.884735107421875,0.0,0.0,0.19794026017189026,0.0,0.0,0.0,-3093.853515625,-16089.2373046875,1486.506103515625,0.0,0.0,45.0,0.0,0.0
1731876099583.0,0.0,0.0,-20.0,0.0,0.0,0.0,0.0,0.0,0.0,0.0,0.0,0.0,0.0,0.0,0.0,11.332794189453125,0.0,0.0,0.18816141784191132,0.0,0.0,0.0,-3219.576904296875,-16064.55078125,1413.0682373046875,0.0,0.0,45.0,0.0,0.0
1731876099583.0,0.0,0.0,-20.0,0.0,0.0,0.0,0.0,0.0,0.0,0.0,0.0,0.0,0.0,0.0,0.0,11.332794189453125,0.0,0.0,0.18816141784191132,0.0,0.0,0.0,-3219.576904296875,-16064.55078125,1413.0682373046875,0.0,0.0,45.0,0.0,0.0
1731876099632.0,0.0,0.0,-20.0,0.0,0.0,0.0,0.0,0.0,0.0,0.0,0.0,0.0,0.0,0.0,0.0,11.75830078125,0.0,0.0,0.17313282191753387,0.0,0.0,0.0,-3338.79052734375,-16040.197265625,1300.205322265625,0.0,0.0,45.0,0.0,0.0
1731876099649.0,0.0,0.0,-20.0,0.0,0.0,0.0,0.0,0.0,0.0,0.0,0.0,0.0,0.0,0.0,0.0,11.956695556640625,0.0,0.0,0.1679408997297287,0.0,0.0,0.0,-3394.311767578125,-16028.5400390625,1261.2147216796875,0.0,0.0,45.0,0.0,0.0
1731876099666.0,0.0,0.0,-20.0,0.0,0.0,0.0,0.0,0.0,0.0,0.0,0.0,0.0,0.0,0.0,0.0,12.149139404296875,0.0,0.0,0.16283398866653442,0.0,0.0,0.0,-3448.128662109375,-16017.0478515625,1222.8624267578125,0.0,0.0,45.0,0.0,0.0
1731876099683.0,0.0,0.0,-20.0,0.0,0.0,0.0,0.0,0.0,0.0,0.0,0.0,0.0,0.0,0.0,0.0,12.33575439453125,0.0,0.0,0.15757745504379272,0.0,0.0,0.0,-3500.279052734375,-16005.7333984375,1183.3865966796875,0.0,0.0,45.0,0.0,0.0
1731876099699.0,0.0,0.0,-20.0,0.0,0.0,0.0,0.0,0.0,0.0,0.0,0.0,0.0,0.0,0.0,0.0,12.516326904296875,0.0,0.0,0.15231502056121826,0.0,0.0,0.0,-3550.70458984375,-15994.6240234375,1143.8663330078125,0.0,0.0,45.0,0.0,0.0
1731876099749.0,0.0,0.0,-20.0,0.0,0.0,0.0,0.0,0.0,0.0,0.0,0.0,0.0,0.0,0.0,0.0,12.853271484375,0.0,0.0,0.1363382637500763,0.0,0.0,0.0,-3644.703857421875,-15973.4658203125,1023.8829345703125,0.0,0.0,45.0,0.0,0.0
1731876099766.0,0.0,0.0,-20.0,0.0,0.0,0.0,0.0,0.0,0.0,0.0,0.0,0.0,0.0,0.0,0.0,13.009490966796875,0.0,0.0,0.1308755874633789,0.0,0.0,0.0,-3688.242431640625,-15963.4697265625,982.8589477539062,0.0,0.0,45.0,0.0,0.0
1731876099783.0,0.0,0.0,-20.0,0.0,0.0,0.0,0.0,0.0,0.0,0.0,0.0,0.0,0.0,0.0,0.0,13.159454345703125,0.0,0.0,0.12541596591472626,0.0,0.0,0.0,-3730.01220703125,-15953.759765625,941.85791015625,0.0,0.0,45.0,0.0,0.0
1731876099799.0,0.0,0.0,-20.0,0.0,0.0,0.0,0.0,0.0,0.0,0.0,0.0,0.0,0.0,0.0,0.0,13.303192138671875,0.0,0.0,0.11999191343784332,0.0,0.0,0.0,-3770.023193359375,-15944.3525390625,901.1239624023438,0.0,0.0,45.0,0.0,0.0
1731876099833.0,0.0,0.0,-20.0,0.0,0.0,0.0,0.0,0.0,0.0,0.0,0.0,0.0,0.0,0.0,0.0,13.440673828125,0.0,0.0,0.10889467597007751,0.0,0.0,0.0,-3808.27099609375,-15935.26171875,817.7850952148438,0.0,0.0,45.0,0.0,0.0
1731876099866.0,0.0,0.0,-20.0,0.0,0.0,0.0,0.0,0.0,0.0,0.0,0.0,0.0,0.0,0.0,0.0,13.68389892578125,0.0,0.0,0.0977170467376709,0.0,0.0,0.0,-3875.883056640625,-15918.9501953125,733.842529296875,0.0,0.0,45.0,0.0,0.0
1731876099883.0,0.0,0.0,-20.0,0.0,0.0,0.0,0.0,0.0,0.0,0.0,0.0,0.0,0.0,0.0,0.0,13.7958984375,0.0,0.0,0.09202993661165237,0.0,0.0,0.0,-3906.9931640625,-15911.3427734375,691.133056640625,0.0,0.0,45.0,0.0,0.0
1731876099883.0,0.0,0.0,-20.0,0.0,0.0,0.0,0.0,0.0,0.0,0.0,0.0,0.0,0.0,0.0,0.0,13.7958984375,0.0,0.0,0.09202993661165237,0.0,0.0,0.0,-3906.9931640625,-15911.3427734375,691.133056640625,0.0,0.0,45.0,0.0,0.0
1731876099933.0,0.0,0.0,-20.0,0.0,0.0,0.0,0.0,0.0,0.0,0.0,0.0,0.0,0.0,0.0,0.0,14.000396728515625,0.0,0.0,0.07497604936361313,0.0,0.0,0.0,-3963.758544921875,-15897.2978515625,563.060546875,0.0,0.0,45.0,0.0,0.0
1731876099949.0,0.0,0.0,-20.0,0.0,0.0,0.0,0.0,0.0,0.0,0.0,0.0,0.0,0.0,0.0,0.0,14.0863037109375,0.0,0.0,0.06919512152671814,0.0,0.0,0.0,-3987.58984375,-15891.3359375,519.6465454101562,0.0,0.0,45.0,0.0,0.0
1731876099983.0,0.0,0.0,-20.0,0.0,0.0,0.0,0.0,0.0,0.0,0.0,0.0,0.0,0.0,0.0,0.0,14.238372802734375,0.0,0.0,0.057734839618206024,0.0,0.0,0.0,-4029.7529296875,-15880.6962890625,433.5812683105469,0.0,0.0,45.0,0.0,0.0
1731876099983.0,0.0,0.0,-20.0,0.0,0.0,0.0,0.0,0.0,0.0,0.0,0.0,0.0,0.0,0.0,0.0,14.238372802734375,0.0,0.0,0.057734839618206024,0.0,0.0,0.0,-4029.7529296875,-15880.6962890625,433.5812683105469,0.0,0.0,45.0,0.0,0.0
1731876099999.0,0.0,0.0,-20.0,0.0,0.0,0.0,0.0,0.0,0.0,0.0,0.0,0.0,0.0,0.0,0.0,14.304534912109375,0.0,0.0,0.052006591111421585,0.0,0.0,0.0,-4048.088623046875,-15876.033203125,390.5628662109375,0.0,0.0,45.0,0.0,0.0
1731876100033.0,0.0,0.0,-20.0,0.0,0.0,0.0,0.0,0.0,0.0,0.0,0.0,0.0,0.0,0.0,0.0,14.3641357421875,0.0,0.0,0.040338754653930664,0.0,0.0,0.0,-4064.6015625,-15871.8134765625,302.93890380859375,0.0,0.0,45.0,0.0,0.0
1731876100066.0,0.0,0.0,-20.0,0.0,0.0,0.0,0.0,0.0,0.0,0.0,0.0,0.0,0.0,0.0,0.0,14.449981689453125,0.0,0.0,0.028593573719263077,0.0,0.0,0.0,-4088.376953125,-15865.705078125,214.7340850830078,0.0,0.0,45.0,0.0,0.0
1731876100083.0,0.0,0.0,-20.0,0.0,0.0,0.0,0.0,0.0,0.0,0.0,0.0,0.0,0.0,0.0,0.0,14.482757568359375,0.0,0.0,0.022820373997092247,0.0,0.0,0.0,-4097.4521484375,-15863.3662109375,171.3780975341797,0.0,0.0,45.0,0.0,0.0
1731876100099.0,0.0,0.0,-20.0,0.0,0.0,0.0,0.0,0.0,0.0,0.0,0.0,0.0,0.0,0.0,0.0,14.508880615234375,0.0,0.0,0.01699814572930336,0.0,0.0,0.0,-4104.6845703125,-15861.49609375,127.65390014648438,0.0,0.0,45.0,0.0,0.0
1731876100133.0,0.0,0.0,-20.0,0.0,0.0,0.0,0.0,0.0,0.0,0.0,0.0,0.0,0.0,0.0,0.0,14.52838134765625,0.0,0.0,0.00529836630448699,0.0,0.0,0.0,-4110.0830078125,-15860.09765625,39.79005432128906,0.0,0.0,45.0,0.0,0.0
1731876100149.0,0.0,0.0,-20.0,0.0,0.0,0.0,0.0,0.0,0.0,0.0,0.0,0.0,0.0,0.0,0.0,14.534454345703125,0.0,0.0,-0.0005974223022349179,0.0,0.0,0.0,-4111.763671875,-15859.6611328125,-4.486565113067627,0.0,0.0,45.0,0.0,0.0
1731876100183.0,0.0,0.0,-20.0,0.0,0.0,0.0,0.0,0.0,0.0,0.0,0.0,0.0,0.0,0.0,0.0,14.5263671875,0.0,0.0,-0.01236540637910366,0.0,0.0,0.0,-4109.525390625,-15860.2412109375,-92.86262512207031,0.0,0.0,45.0,0.0,0.0
1731876100183.0,0.0,0.0,-20.0,0.0,0.0,0.0,0.0,0.0,0.0,0.0,0.0,0.0,0.0,0.0,0.0,14.5263671875,0.0,0.0,-0.01236540637910366,0.0,0.0,0.0,-4109.525390625,-15860.2412109375,-92.86262512207031,0.0,0.0,45.0,0.0,0.0
1731876100233.0,0.0,0.0,-20.0,0.0,0.0,0.0,0.0,0.0,0.0,0.0,0.0,0.0,0.0,0.0,0.0,14.491302490234375,0.0,0.0,-0.02989109978079796,0.0,0.0,0.0,-4099.818359375,-15862.75390625,-224.4783477783203,0.0,0.0,45.0,0.0,0.0
1731876100250.0,0.0,0.0,-20.0,0.0,0.0,0.0,0.0,0.0,0.0,0.0,0.0,0.0,0.0,0.0,0.0,14.457061767578125,0.0,0.0,-0.03572922572493553,0.0,0.0,0.0,-4090.337646484375,-15865.2001953125,-268.3219299316406,0.0,0.0,45.0,0.0,0.0
1731876100283.0,0.0,0.0,-20.0,0.0,0.0,0.0,0.0,0.0,0.0,0.0,0.0,0.0,0.0,0.0,0.0,14.36846923828125,0.0,0.0,-0.04735273867845535,0.0,0.0,0.0,-4065.80126953125,-15871.5068359375,-355.6130065917969,0.0,0.0,45.0,0.0,0.0
1731876100283.0,0.0,0.0,-20.0,0.0,0.0,0.0,0.0,0.0,0.0,0.0,0.0,0.0,0.0,0.0,0.0,14.36846923828125,0.0,0.0,-0.04735273867845535,0.0,0.0,0.0,-4065.80126953125,-15871.5068359375,-355.6130065917969,0.0,0.0,45.0,0.0,0.0
1731876100300.0,0.0,0.0,-20.0,0.0,0.0,0.0,0.0,0.0,0.0,0.0,0.0,0.0,0.0,0.0,0.0,14.314208984375,0.0,0.0,-0.05318796634674072,0.0,0.0,0.0,-4050.76904296875,-15875.349609375,-399.4348449707031,0.0,0.0,45.0,0.0,0.0
1731876100350.0,0.0,0.0,-20.0,0.0,0.0,0.0,0.0,0.0,0.0,0.0,0.0,0.0,0.0,0.0,0.0,14.179046630859375,0.0,0.0,-0.07051318138837814,0.0,0.0,0.0,-4013.307373046875,-15884.861328125,-529.5449829101562,0.0,0.0,45.0,0.0,0.0
1731876100367.0,0.0,0.0,-20.0,0.0,0.0,0.0,0.0,0.0,0.0,0.0,0.0,0.0,0.0,0.0,0.0,14.098236083984375,0.0,0.0,-0.07624756544828415,0.0,0.0,0.0,-3990.899169921875,-15890.5068359375,-572.6094970703125,0.0,0.0,45.0,0.0,0.0
1731876100383.0,0.0,0.0,-20.0,0.0,0.0,0.0,0.0,0.0,0.0,0.0,0.0,0.0,0.0,0.0,0.0,14.0108642578125,0.0,0.0,-0.08200239390134811,0.0,0.0,0.0,-3966.66259765625,-15896.5732421875,-615.8275146484375,0.0,0.0,45.0,0.0,0.0
1731876100400.0,0.0,0.0,-20.0,0.0,0.0,0.0,0.0,0.0,0.0,0.0,0.0,0.0,0.0,0.0,0.0,13.916900634765625,0.0,0.0,-0.08769252151250839,0.0,0.0,0.0,-3940.58740234375,-15903.0576171875,-658.5596313476562,0.0,0.0,45.0,0.0,0.0
1731876100450.0,0.0,0.0,-20.0,0.0,0.0,0.0,0.0,0.0,0.0,0.0,0.0,0.0,0.0,0.0,0.0,13.703125,0.0,0.0,-0.10457926988601685,0.0,0.0,0.0,-3881.224365234375,-15917.6484375,-785.376953125,0.0,0.0,45.0,0.0,0.0
1731876100467.0,0.0,0.0,-20.0,0.0,0.0,0.0,0.0,0.0,0.0,0.0,0.0,0.0,0.0,0.0,0.0,13.583282470703125,0.0,0.0,-0.1102030798792839,0.0,0.0,0.0,-3847.921630859375,-15925.732421875,-827.611083984375,0.0,0.0,45.0,0.0,0.0
1731876100484.0,0.0,0.0,-20.0,0.0,0.0,0.0,0.0,0.0,0.0,0.0,0.0,0.0,0.0,0.0,0.0,13.457000732421875,0.0,0.0,-0.11575525999069214,0.0,0.0,0.0,-3812.81201171875,-15934.1748046875,-869.3071899414062,0.0,0.0,45.0,0.0,0.0
1731876100500.0,0.0,0.0,-20.0,0.0,0.0,0.0,0.0,0.0,0.0,0.0,0.0,0.0,0.0,0.0,0.0,13.324371337890625,0.0,0.0,-0.12127517908811569,0.0,0.0,0.0,-3775.9169921875,-15942.9580078125,-910.7611083984375,0.0,0.0,45.0,0.0,0.0
1731876100533.0,0.0,0.0,-20.0,0.0,0.0,0.0,0.0,0.0,0.0,0.0,0.0,0.0,0.0,0.0,0.0,13.185394287109375,0.0,0.0,-0.1321525126695633,0.0,0.0,0.0,-3737.234130859375,-15952.0703125,-992.448486328125,0.0,0.0,45.0,0.0,0.0
1731876100567.0,0.0,0.0,-20.0,0.0,0.0,0.0,0.0,0.0,0.0,0.0,0.0,0.0,0.0,0.0,0.0,12.876373291015625,0.0,0.0,-0.1429135501384735,0.0,0.0,0.0,-3651.143798828125,-15971.994140625,-1073.262451171875,0.0,0.0,45.0,0.0,0.0
1731876100583.0,0.0,0.0,-20.0,0.0,0.0,0.0,0.0,0.0,0.0,0.0,0.0,0.0,0.0,0.0,0.0,12.712615966796875,0.0,0.0,-0.14816249907016754,0.0,0.0,0.0,-3605.479248046875,-15982.3642578125,-1112.681396484375,0.0,0.0,45.0,0.0,0.0
1731876100600.0,0.0,0.0,-20.0,0.0,0.0,0.0,0.0,0.0,0.0,0.0,0.0,0.0,0.0,0.0,0.0,12.5428466796875,0.0,0.0,-0.15345832705497742,0.0,0.0,0.0,-3558.107421875,-15992.9765625,-1152.452392578125,0.0,0.0,45.0,0.0,0.0
1731876100633.0,0.0,0.0,-20.0,0.0,0.0,0.0,0.0,0.0,0.0,0.0,0.0,0.0,0.0,0.0,0.0,12.366973876953125,0.0,0.0,-0.16392019391059875,0.0,0.0,0.0,-3508.999267578125,-16003.8232421875,-1231.019775390625,0.0,0.0,45.0,0.0,0.0
1731876100667.0,0.0,0.0,-20.0,0.0,0.0,0.0,0.0,0.0,0.0,0.0,0.0,0.0,0.0,0.0,0.0,11.985321044921875,0.0,0.0,-0.17426452040672302,0.0,0.0,0.0,-3402.31884765625,-16026.841796875,-1308.704345703125,0.0,0.0,45.0,0.0,0.0
1731876100684.0,0.0,0.0,-20.0,0.0,0.0,0.0,0.0,0.0,0.0,0.0,0.0,0.0,0.0,0.0,0.0,11.785614013671875,0.0,0.0,-0.17934061586856842,0.0,0.0,0.0,-3346.4365234375,-16038.6044921875,-1346.8250732421875,0.0,0.0,45.0,0.0,0.0
1731876100700.0,0.0,0.0,-20.0,0.0,0.0,0.0,0.0,0.0,0.0,0.0,0.0,0.0,0.0,0.0,0.0,11.580108642578125,0.0,0.0,-0.18429352343082428,0.0,0.0,0.0,-3288.888916015625,-16050.50390625,-1384.0208740234375,0.0,0.0,45.0,0.0,0.0
1731876100734.0,0.0,0.0,-20.0,0.0,0.0,0.0,0.0,0.0,0.0,0.0,0.0,0.0,0.0,0.0,0.0,11.368927001953125,0.0,0.0,-0.1941819041967392,0.0,0.0,0.0,-3229.70703125,-16062.5166015625,-1458.28125,0.0,0.0,45.0,0.0,0.0
1731876100750.0,0.0,0.0,-20.0,0.0,0.0,0.0,0.0,0.0,0.0,0.0,0.0,0.0,0.0,0.0,0.0,11.14642333984375,0.0,0.0,-0.1990145444869995,0.0,0.0,0.0,-3167.305419921875,-16074.9384765625,-1494.5738525390625,0.0,0.0,45.0,0.0,0.0
1731876100784.0,0.0,0.0,-20.0,0.0,0.0,0.0,0.0,0.0,0.0,0.0,0.0,0.0,0.0,0.0,0.0,10.68475341796875,0.0,0.0,-0.20865197479724884,0.0,0.0,0.0,-3037.677734375,-16099.9375,-1566.94970703125,0.0,0.0,45.0,0.0,0.0
1731876100784.0,0.0,0.0,-20.0,0.0,0.0,0.0,0.0,0.0,0.0,0.0,0.0,0.0,0.0,0.0,0.0,10.68475341796875,0.0,0.0,-0.20865197479724884,0.0,0.0,0.0,-3037.677734375,-16099.9375,-1566.94970703125,0.0,0.0,45.0,0.0,0.0
1731876100834.0,0.0,0.0,-20.0,0.0,0.0,0.0,0.0,0.0,0.0,0.0,0.0,0.0,0.0,0.0,0.0,10.20135498046875,0.0,0.0,-0.22242851555347443,0.0,0.0,0.0,-2901.73779296875,-16124.9931640625,-1670.4097900390625,0.0,0.0,45.0,0.0,0.0
1731876100850.0,0.0,0.0,-20.0,0.0,0.0,0.0,0.0,0.0,0.0,0.0,0.0,0.0,0.0,0.0,0.0,9.94647216796875,0.0,0.0,-0.22696852684020996,0.0,0.0,0.0,-2829.9765625,-16137.7412109375,-1704.504638671875,0.0,0.0,45.0,0.0,0.0
1731876100883.0,0.0,0.0,-20.0,0.0,0.0,0.0,0.0,0.0,0.0,0.0,0.0,0.0,0.0,0.0,0.0,9.421234130859375,0.0,0.0,-0.2357197254896164,0.0,0.0,0.0,-2681.9228515625,-16163.005859375,-1770.2249755859375,0.0,0.0,45.0,0.0,0.0
1731876100883.0,0.0,0.0,-20.0,0.0,0.0,0.0,0.0,0.0,0.0,0.0,0.0,0.0,0.0,0.0,0.0,9.421234130859375,0.0,0.0,-0.2357197254896164,0.0,0.0,0.0,-2681.9228515625,-16163.005859375,-1770.2249755859375,0.0,0.0,45.0,0.0,0.0
1731876100900.0,0.0,0.0,-20.0,0.0,0.0,0.0,0.0,0.0,0.0,0.0,0.0,0.0,0.0,0.0,0.0,9.151123046875,0.0,0.0,-0.24008116126060486,0.0,0.0,0.0,-2605.69580078125,-16175.46875,-1802.9788818359375,0.0,0.0,45.0,0.0,0.0
1731876100950.0,0.0,0.0,-20.0,0.0,0.0,0.0,0.0,0.0,0.0,0.0,0.0,0.0,0.0,0.0,0.0,8.591217041015625,0.0,0.0,-0.25257164239883423,0.0,0.0,0.0,-2447.503662109375,-16200.16015625,-1896.78076171875,0.0,0.0,45.0,0.0,0.0
1731876100967.0,0.0,0.0,-20.0,0.0,0.0,0.0,0.0,0.0,0.0,0.0,0.0,0.0,0.0,0.0,0.0,8.301788330078125,0.0,0.0,-0.25664085149765015,0.0,0.0,0.0,-2365.637939453125,-16212.31640625,-1927.3399658203125,0.0,0.0,45.0,0.0,0.0
1731876100984.0,0.0,0.0,-20.0,0.0,0.0,0.0,0.0,0.0,0.0,0.0,0.0,0.0,0.0,0.0,0.0,8.0076904296875,0.0,0.0,-0.2606303095817566,0.0,0.0,0.0,-2282.389892578125,-16224.24609375,-1957.30029296875,0.0,0.0,45.0,0.0,0.0
1731876101000.0,0.0,0.0,-20.0,0.0,0.0,0.0,0.0,0.0,0.0,0.0,0.0,0.0,0.0,0.0,0.0,7.70904541015625,0.0,0.0,-0.26444050669670105,0.0,0.0,0.0,-2197.79296875,-16235.9228515625,-1985.9144287109375,0.0,0.0,45.0,0.0,0.0
1731876101050.0,0.0,0.0,-20.0,0.0,0.0,0.0,0.0,0.0,0.0,0.0,0.0,0.0,0.0,0.0,0.0,7.09423828125,0.0,0.0,-0.27568358182907104,0.0,0.0,0.0,-2023.4517822265625,-16258.5703125,-2070.348388671875,0.0,0.0,45.0,0.0,0.0
1731876101067.0,0.0,0.0,-20.0,0.0,0.0,0.0,0.0,0.0,0.0,0.0,0.0,0.0,0.0,0.0,0.0,6.7783203125,0.0,0.0,-0.27934402227401733,0.0,0.0,0.0,-1933.774658203125,-16269.478515625,-2097.837890625,0.0,0.0,45.0,0.0,0.0
1731876101084.0,0.0,0.0,-20.0,0.0,0.0,0.0,0.0,0.0,0.0,0.0,0.0,0.0,0.0,0.0,0.0,6.458221435546875,0.0,0.0,-0.28286653757095337,0.0,0.0,0.0,-1842.8509521484375,-16280.029296875,-2124.29150390625,0.0,0.0,45.0,0.0,0.0
1731876101100.0,0.0,0.0,-20.0,0.0,0.0,0.0,0.0,0.0,0.0,0.0,0.0,0.0,0.0,0.0,0.0,6.134063720703125,0.0,0.0,-0.2862416207790375,0.0,0.0,0.0,-1750.7158203125,-16290.1962890625,-2149.637939453125,0.0,0.0,45.0,0.0,0.0
1731876101134.0,0.0,0.0,-20.0,0.0,0.0,0.0,0.0,0.0,0.0,0.0,0.0,0.0,0.0,0.0,0.0,5.806060791015625,0.0,0.0,-0.2928786873817444,0.0,0.0,0.0,-1657.4305419921875,-16299.9501953125,-2199.4814453125,0.0,0.0,45.0,0.0,0.0
1731876101167.0,0.0,0.0,-20.0,0.0,0.0,0.0,0.0,0.0,0.0,0.0,0.0,0.0,0.0,0.0,0.0,5.131134033203125,0.0,0.0,-0.29919496178627014,0.0,0.0,0.0,-1465.311767578125,-16318.3427734375,-2246.916015625,0.0,0.0,45.0,0.0,0.0
1731876101184.0,0.0,0.0,-20.0,0.0,0.0,0.0,0.0,0.0,0.0,0.0,0.0,0.0,0.0,0.0,0.0,4.78826904296875,0.0,0.0,-0.30220910906791687,0.0,0.0,0.0,-1367.635009765625,-16326.8203125,-2269.5517578125,0.0,0.0,45.0,0.0,0.0
1731876101184.0,0.0,0.0,-20.0,0.0,0.0,0.0,0.0,0.0,0.0,0.0,0.0,0.0,0.0,0.0,0.0,4.78826904296875,0.0,0.0,-0.30220910906791687,0.0,0.0,0.0,-1367.635009765625,-16326.8203125,-2269.5517578125,0.0,0.0,45.0,0.0,0.0
1731876101234.0,0.0,0.0,-20.0,0.0,0.0,0.0,0.0,0.0,0.0,0.0,0.0,0.0,0.0,0.0,0.0,4.09228515625,0.0,0.0,-0.31086352467536926,0.0,0.0,0.0,-1169.2137451171875,-16342.228515625,-2334.54541015625,0.0,0.0,45.0,0.0,0.0
1731876101251.0,0.0,0.0,-20.0,0.0,0.0,0.0,0.0,0.0,0.0,0.0,0.0,0.0,0.0,0.0,0.0,3.736053466796875,0.0,0.0,-0.3135022819042206,0.0,0.0,0.0,-1067.5853271484375,-16349.1806640625,-2354.362060546875,0.0,0.0,45.0,0.0,0.0
1731876101284.0,0.0,0.0,-20.0,0.0,0.0,0.0,0.0,0.0,0.0,0.0,0.0,0.0,0.0,0.0,0.0,3.01458740234375,0.0,0.0,-0.3185897767543793,0.0,0.0,0.0,-861.6380004882812,-16361.3271484375,-2392.568603515625,0.0,0.0,45.0,0.0,0.0
1731876101284.0,0.0,0.0,-20.0,0.0,0.0,0.0,0.0,0.0,0.0,0.0,0.0,0.0,0.0,0.0,0.0,3.01458740234375,0.0,0.0,-0.3185897767543793,0.0,0.0,0.0,-861.6380004882812,-16361.3271484375,-2392.568603515625,0.0,0.0,45.0,0.0,0.0
1731876101334.0,0.0,0.0,-20.0,0.0,0.0,0.0,0.0,0.0,0.0,0.0,0.0,0.0,0.0,0.0,0.0,2.281646728515625,0.0,0.0,-0.3255850374698639,0.0,0.0,0.0,-652.2753295898438,-16371.0107421875,-2445.10205078125,0.0,0.0,45.0,0.0,0.0
1731876101351.0,0.0,0.0,-20.0,0.0,0.0,0.0,0.0,0.0,0.0,0.0,0.0,0.0,0.0,0.0,0.0,1.9085693359375,0.0,0.0,-0.3277561366558075,0.0,0.0,0.0,-545.6635131835938,-16374.912109375,-2461.40673828125,0.0,0.0,45.0,0.0,0.0
1731876101367.0,0.0,0.0,-20.0,0.0,0.0,0.0,0.0,0.0,0.0,0.0,0.0,0.0,0.0,0.0,0.0,1.532989501953125,0.0,0.0,-0.3298087418079376,0.0,0.0,0.0,-438.3133239746094,-16378.1357421875,-2476.821533203125,0.0,0.0,45.0,0.0,0.0
1731876101384.0,0.0,0.0,-20.0,0.0,0.0,0.0,0.0,0.0,0.0,0.0,0.0,0.0,0.0,0.0,0.0,1.155029296875,0.0,0.0,-0.3318021297454834,0.0,0.0,0.0,-330.26373291015625,-16380.6708984375,-2491.79150390625,0.0,0.0,45.0,0.0,0.0
1731876101401.0,0.0,0.0,-20.0,0.0,0.0,0.0,0.0,0.0,0.0,0.0,0.0,0.0,0.0,0.0,0.0,0.77484130859375,0.0,0.0,-0.3337177336215973,0.0,0.0,0.0,-221.5627899169922,-16382.5009765625,-2506.177490234375,0.0,0.0,45.0,0.0,0.0
1731876101451.0,0.0,0.0,-20.0,0.0,0.0,0.0,0.0,0.0,0.0,0.0,0.0,0.0,0.0,0.0,0.0,0.006011962890625,0.0,0.0,-0.33878862857818604,0.0,0.0,0.0,-1.7191494703292847,-16384.0,-2544.25927734375,0.0,0.0,45.0,0.0,0.0
1731876101468.0,0.0,0.0,-20.0,0.0,0.0,0.0,0.0,0.0,0.0,0.0,0.0,0.0,0.0,0.0,0.0,-0.38220319151878357,0.0,0.0,-0.34030136466026306,0.0,0.0,0.0,109.29200744628906,-16383.6357421875,-2555.619873046875,0.0,0.0,45.0,0.0,0.0
1731876101485.0,0.0,0.0,-20.0,0.0,0.0,0.0,0.0,0.0,0.0,0.0,0.0,0.0,0.0,0.0,0.0,-0.77215975522995,0.0,0.0,-0.3417004644870758,0.0,0.0,0.0,220.7960662841797,-16382.5126953125,-2566.126953125,0.0,0.0,45.0,0.0,0.0
1731876101501.0,0.0,0.0,-20.0,0.0,0.0,0.0,0.0,0.0,0.0,0.0,0.0,0.0,0.0,0.0,0.0,-1.1637195348739624,0.0,0.0,-0.34299615025520325,0.0,0.0,0.0,332.7482604980469,-16380.6220703125,-2575.857177734375,0.0,0.0,45.0,0.0,0.0
1731876101534.0,0.0,0.0,-20.0,0.0,0.0,0.0,0.0,0.0,0.0,0.0,0.0,0.0,0.0,0.0,0.0,-1.5567641258239746,0.0,0.0,-0.34533724188804626,0.0,0.0,0.0,445.10931396484375,-16377.9541015625,-2593.4384765625,0.0,0.0,45.0,0.0,0.0
1731876101568.0,0.0,0.0,-20.0,0.0,0.0,0.0,0.0,0.0,0.0,0.0,0.0,0.0,0.0,0.0,0.0,-2.349407911300659,0.0,0.0,-0.3472701609134674,0.0,0.0,0.0,671.6361083984375,-16370.2275390625,-2607.95458984375,0.0,0.0,45.0,0.0,0.0
1731876101584.0,0.0,0.0,-20.0,0.0,0.0,0.0,0.0,0.0,0.0,0.0,0.0,0.0,0.0,0.0,0.0,-2.7473504543304443,0.0,0.0,-0.34811875224113464,0.0,0.0,0.0,785.3168334960938,-16365.1669921875,-2614.327392578125,0.0,0.0,45.0,0.0,0.0
1731876101601.0,0.0,0.0,-20.0,0.0,0.0,0.0,0.0,0.0,0.0,0.0,0.0,0.0,0.0,0.0,0.0,-3.1462652683258057,0.0,0.0,-0.3488629460334778,0.0,0.0,0.0,899.2374267578125,-16359.3046875,-2619.916259765625,0.0,0.0,45.0,0.0,0.0
1731876101635.0,0.0,0.0,-20.0,0.0,0.0,0.0,0.0,0.0,0.0,0.0,0.0,0.0,0.0,0.0,0.0,-3.546032667160034,0.0,0.0,-0.3500368297100067,0.0,0.0,0.0,1013.357666015625,-16352.6318359375,-2628.73193359375,0.0,0.0,45.0,0.0,0.0
1731876101651.0,0.0,0.0,-20.0,0.0,0.0,0.0,0.0,0.0,0.0,0.0,0.0,0.0,0.0,0.0,0.0,-3.947145462036133,0.0,0.0,-0.3504822850227356,0.0,0.0,0.0,1127.8125,-16345.13671875,-2632.0771484375,0.0,0.0,45.0,0.0,0.0
1731876101685.0,0.0,0.0,-20.0,0.0,0.0,0.0,0.0,0.0,0.0,0.0,0.0,0.0,0.0,0.0,0.0,-4.750785827636719,0.0,0.0,-0.35106930136680603,0.0,0.0,0.0,1356.95361328125,-16327.7099609375,-2636.485595703125,0.0,0.0,45.0,0.0,0.0
1731876101685.0,0.0,0.0,-20.0,0.0,0.0,0.0,0.0,0.0,0.0,0.0,0.0,0.0,0.0,0.0,0.0,-4.750785827636719,0.0,0.0,-0.35106930136680603,0.0,0.0,0.0,1356.95361328125,-16327.7099609375,-2636.485595703125,0.0,0.0,45.0,0.0,0.0
1731876101735.0,0.0,0.0,-20.0,0.0,0.0,0.0,0.0,0.0,0.0,0.0,0.0,0.0,0.0,0.0,0.0,-5.5555524826049805,0.0,0.0,-0.35122451186180115,0.0,0.0,0.0,1586.1484375,-16307.041015625,-2637.651123046875,0.0,0.0,45.0,0.0,0.0
1731876101752.0,0.0,0.0,-20.0,0.0,0.0,0.0,0.0,0.0,0.0,0.0,0.0,0.0,0.0,0.0,0.0,-5.958025932312012,0.0,0.0,-0.35108092427253723,0.0,0.0,0.0,1700.656982421875,-16295.49609375,-2636.572998046875,0.0,0.0,45.0,0.0,0.0
1731876101785.0,0.0,0.0,-20.0,0.0,0.0,0.0,0.0,0.0,0.0,0.0,0.0,0.0,0.0,0.0,0.0,-6.7623677253723145,0.0,0.0,-0.3504960536956787,0.0,0.0,0.0,1929.244873046875,-16270.017578125,-2632.1806640625,0.0,0.0,45.0,0.0,0.0
1731876101785.0,0.0,0.0,-20.0,0.0,0.0,0.0,0.0,0.0,0.0,0.0,0.0,0.0,0.0,0.0,0.0,-6.7623677253723145,0.0,0.0,-0.3504960536956787,0.0,0.0,0.0,1929.244873046875,-16270.017578125,-2632.1806640625,0.0,0.0,45.0,0.0,0.0
1731876101834.0,0.0,0.0,-20.0,0.0,0.0,0.0,0.0,0.0,0.0,0.0,0.0,0.0,0.0,0.0,0.0,-7.565166473388672,0.0,0.0,-0.34891563653945923,0.0,0.0,0.0,2157.01513671875,-16241.390625,-2620.311767578125,0.0,0.0,45.0,0.0,0.0
1731876101851.0,0.0,0.0,-20.0,0.0,0.0,0.0,0.0,0.0,0.0,0.0,0.0,0.0,0.0,0.0,0.0,-7.964995384216309,0.0,0.0,-0.3482016623020172,0.0,0.0,0.0,2270.299560546875,-16225.9423828125,-2614.949951171875,0.0,0.0,45.0,0.0,0.0
1731876101884.0,0.0,0.0,-20.0,0.0,0.0,0.0,0.0,0.0,0.0,0.0,0.0,0.0,0.0,0.0,0.0,-8.762072563171387,0.0,0.0,-0.34646594524383545,0.0,0.0,0.0,2495.801513671875,-16192.7890625,-2601.9150390625,0.0,0.0,45.0,0.0,0.0
1731876101884.0,0.0,0.0,-20.0,0.0,0.0,0.0,0.0,0.0,0.0,0.0,0.0,0.0,0.0,0.0,0.0,-8.762072563171387,0.0,0.0,-0.34646594524383545,0.0,0.0,0.0,2495.801513671875,-16192.7890625,-2601.9150390625,0.0,0.0,45.0,0.0,0.0
1731876101901.0,0.0,0.0,-20.0,0.0,0.0,0.0,0.0,0.0,0.0,0.0,0.0,0.0,0.0,0.0,0.0,-9.159092903137207,0.0,0.0,-0.34543153643608093,0.0,0.0,0.0,2607.94580078125,-16175.1064453125,-2594.146728515625,0.0,0.0,45.0,0.0,0.0
1731876101951.0,0.0,0.0,-20.0,0.0,0.0,0.0,0.0,0.0,0.0,0.0,0.0,0.0,0.0,0.0,0.0,-9.948136329650879,0.0,0.0,-0.3418520987033844,0.0,0.0,0.0,2830.4453125,-16137.658203125,-2567.265625,0.0,0.0,45.0,0.0,0.0
1731876101967.0,0.0,0.0,-20.0,0.0,0.0,0.0,0.0,0.0,0.0,0.0,0.0,0.0,0.0,0.0,0.0,-10.33987045288086,0.0,0.0,-0.3404635787010193,0.0,0.0,0.0,2940.71240234375,-16117.9287109375,-2556.837890625,0.0,0.0,45.0,0.0,0.0
1731876101984.0,0.0,0.0,-20.0,0.0,0.0,0.0,0.0,0.0,0.0,0.0,0.0,0.0,0.0,0.0,0.0,-10.730012893676758,0.0,0.0,-0.3389446437358856,0.0,0.0,0.0,3050.394775390625,-16097.5322265625,-2545.430908203125,0.0,0.0,45.0,0.0,0.0
1731876102001.0,0.0,0.0,-20.0,0.0,0.0,0.0,0.0,0.0,0.0,0.0,0.0,0.0,0.0,0.0,0.0,-11.118414878845215,0.0,0.0,-0.3373367488384247,0.0,0.0,0.0,3159.447021484375,-16076.4833984375,-2533.35595703125,0.0,0.0,45.0,0.0,0.0
1731876102034.0,0.0,0.0,-20.0,0.0,0.0,0.0,0.0,0.0,0.0,0.0,0.0,0.0,0.0,0.0,0.0,-11.504974365234375,0.0,0.0,-0.3339121639728546,0.0,0.0,0.0,3267.838134765625,-16054.802734375,-2507.6376953125,0.0,0.0,45.0,0.0,0.0
1731876102052.0,0.0,0.0,-20.0,0.0,0.0,0.0,0.0,0.0,0.0,0.0,0.0,0.0,0.0,0.0,0.0,-11.887611389160156,0.0,0.0,-0.3319505453109741,0.0,0.0,0.0,3374.983154296875,-16032.62109375,-2492.90625,0.0,0.0,45.0,0.0,0.0
1731876102084.0,0.0,0.0,-20.0,0.0,0.0,0.0,0.0,0.0,0.0,0.0,0.0,0.0,0.0,0.0,0.0,-12.646230697631836,0.0,0.0,-0.3280186057090759,0.0,0.0,0.0,3586.958984375,-15986.53125,-2463.3779296875,0.0,0.0,45.0,0.0,0.0
1731876102084.0,0.0,0.0,-20.0,0.0,0.0,0.0,0.0,0.0,0.0,0.0,0.0,0.0,0.0,0.0,0.0,-12.646230697631836,0.0,0.0,-0.3280186057090759,0.0,0.0,0.0,3586.958984375,-15986.53125,-2463.3779296875,0.0,0.0,45.0,0.0,0.0
1731876102135.0,0.0,0.0,-20.0,0.0,0.0,0.0,0.0,0.0,0.0,0.0,0.0,0.0,0.0,0.0,0.0,-13.395491600036621,0.0,0.0,-0.32125523686408997,0.0,0.0,0.0,3795.703857421875,-15938.2587890625,-2412.585693359375,0.0,0.0,45.0,0.0,0.0
1731876102151.0,0.0,0.0,-20.0,0.0,0.0,0.0,0.0,0.0,0.0,0.0,0.0,0.0,0.0,0.0,0.0,-13.76362133026123,0.0,0.0,-0.3188837766647339,0.0,0.0,0.0,3898.029296875,-15913.54296875,-2394.7763671875,0.0,0.0,45.0,0.0,0.0
1731876102168.0,0.0,0.0,-20.0,0.0,0.0,0.0,0.0,0.0,0.0,0.0,0.0,0.0,0.0,0.0,0.0,-14.129034996032715,0.0,0.0,-0.316333532333374,0.0,0.0,0.0,3999.4404296875,-15888.357421875,-2375.62451171875,0.0,0.0,45.0,0.0,0.0
1731876102185.0,0.0,0.0,-20.0,0.0,0.0,0.0,0.0,0.0,0.0,0.0,0.0,0.0,0.0,0.0,0.0,-14.491525650024414,0.0,0.0,-0.31381717324256897,0.0,0.0,0.0,4099.8798828125,-15862.736328125,-2356.726806640625,0.0,0.0,45.0,0.0,0.0
1731876102201.0,0.0,0.0,-20.0,0.0,0.0,0.0,0.0,0.0,0.0,0.0,0.0,0.0,0.0,0.0,0.0,-14.851133346557617,0.0,0.0,-0.3111537992954254,0.0,0.0,0.0,4199.3583984375,-15836.693359375,-2336.725341796875,0.0,0.0,45.0,0.0,0.0
1731876102251.0,0.0,0.0,-20.0,0.0,0.0,0.0,0.0,0.0,0.0,0.0,0.0,0.0,0.0,0.0,0.0,-15.557865142822266,0.0,0.0,-0.3025977313518524,0.0,0.0,0.0,4394.37646484375,-15783.69140625,-2272.47021484375,0.0,0.0,45.0,0.0,0.0
1731876102268.0,0.0,0.0,-20.0,0.0,0.0,0.0,0.0,0.0,0.0,0.0,0.0,0.0,0.0,0.0,0.0,-15.904614448547363,0.0,0.0,-0.29957765340805054,0.0,0.0,0.0,4489.81689453125,-15756.80859375,-2249.789794921875,0.0,0.0,45.0,0.0,0.0
1731876102285.0,0.0,0.0,-20.0,0.0,0.0,0.0,0.0,0.0,0.0,0.0,0.0,0.0,0.0,0.0,0.0,-16.247905731201172,0.0,0.0,-0.2964913249015808,0.0,0.0,0.0,4584.14404296875,-15729.625,-2226.612060546875,0.0,0.0,45.0,0.0,0.0
1731876102301.0,0.0,0.0,-20.0,0.0,0.0,0.0,0.0,0.0,0.0,0.0,0.0,0.0,0.0,0.0,0.0,-16.58765983581543,0.0,0.0,-0.2932819724082947,0.0,0.0,0.0,4677.3369140625,-15702.1650390625,-2202.51025390625,0.0,0.0,45.0,0.0,0.0
1731876102335.0,0.0,0.0,-20.0,0.0,0.0,0.0,0.0,0.0,0.0,0.0,0.0,0.0,0.0,0.0,0.0,-16.92373275756836,0.0,0.0,-0.2866464853286743,0.0,0.0,0.0,4769.35791015625,-15674.458984375,-2152.678466796875,0.0,0.0,45.0,0.0,0.0
1731876102351.0,0.0,0.0,-20.0,0.0,0.0,0.0,0.0,0.0,0.0,0.0,0.0,0.0,0.0,0.0,0.0,-17.252206802368164,0.0,0.0,-0.2832997143268585,0.0,0.0,0.0,4859.14013671875,-15646.8603515625,-2127.544677734375,0.0,0.0,45.0,0.0,0.0
1731876102384.0,0.0,0.0,-20.0,0.0,0.0,0.0,0.0,0.0,0.0,0.0,0.0,0.0,0.0,0.0,0.0,-17.89738655090332,0.0,0.0,-0.27622249722480774,0.0,0.0,0.0,5035.02001953125,-15591.1533203125,-2074.395751953125,0.0,0.0,45.0,0.0,0.0
1731876102384.0,0.0,0.0,-20.0,0.0,0.0,0.0,0.0,0.0,0.0,0.0,0.0,0.0,0.0,0.0,0.0,-17.89738655090332,0.0,0.0,-0.27622249722480774,0.0,0.0,0.0,5035.02001953125,-15591.1533203125,-2074.395751953125,0.0,0.0,45.0,0.0,0.0
1731876102401.0,0.0,0.0,-20.0,0.0,0.0,0.0,0.0,0.0,0.0,0.0,0.0,0.0,0.0,0.0,0.0,-18.213916778564453,0.0,0.0,-0.272521048784256,0.0,0.0,0.0,5121.07568359375,-15563.0986328125,-2046.5982666015625,0.0,0.0,45.0,0.0,0.0
1731876102452.0,0.0,0.0,-20.0,0.0,0.0,0.0,0.0,0.0,0.0,0.0,0.0,0.0,0.0,0.0,0.0,-18.82988739013672,0.0,0.0,-0.26107722520828247,0.0,0.0,0.0,5288.0908203125,-15507.146484375,-1960.6566162109375,0.0,0.0,45.0,0.0,0.0
1731876102468.0,0.0,0.0,-20.0,0.0,0.0,0.0,0.0,0.0,0.0,0.0,0.0,0.0,0.0,0.0,0.0,-19.129058837890625,0.0,0.0,-0.25711795687675476,0.0,0.0,0.0,5368.9892578125,-15479.322265625,-1930.9229736328125,0.0,0.0,45.0,0.0,0.0
1731876102485.0,0.0,0.0,-20.0,0.0,0.0,0.0,0.0,0.0,0.0,0.0,0.0,0.0,0.0,0.0,0.0,-19.42369270324707,0.0,0.0,-0.2530795633792877,0.0,0.0,0.0,5448.51806640625,-15451.5078125,-1900.59521484375,0.0,0.0,45.0,0.0,0.0
1731876102501.0,0.0,0.0,-20.0,0.0,0.0,0.0,0.0,0.0,0.0,0.0,0.0,0.0,0.0,0.0,0.0,-19.713701248168945,0.0,0.0,-0.24900825321674347,0.0,0.0,0.0,5526.6572265625,-15423.7333984375,-1870.0201416015625,0.0,0.0,45.0,0.0,0.0
1731876102535.0,0.0,0.0,-20.0,0.0,0.0,0.0,0.0,0.0,0.0,0.0,0.0,0.0,0.0,0.0,0.0,-19.999042510986328,0.0,0.0,-0.2405444234609604,0.0,0.0,0.0,5603.40087890625,-15396.017578125,-1806.4578857421875,0.0,0.0,45.0,0.0,0.0
1731876102568.0,0.0,0.0,-20.0,0.0,0.0,0.0,0.0,0.0,0.0,0.0,0.0,0.0,0.0,0.0,0.0,-20.54529571533203,0.0,0.0,-0.2318815290927887,0.0,0.0,0.0,5749.92822265625,-15341.896484375,-1741.400634765625,0.0,0.0,45.0,0.0,0.0
1731876102586.0,0.0,0.0,-20.0,0.0,0.0,0.0,0.0,0.0,0.0,0.0,0.0,0.0,0.0,0.0,0.0,-20.811012268066406,0.0,0.0,-0.2273140251636505,0.0,0.0,0.0,5821.01611328125,-15315.0654296875,-1707.0992431640625,0.0,0.0,45.0,0.0,0.0
1731876102602.0,0.0,0.0,-20.0,0.0,0.0,0.0,0.0,0.0,0.0,0.0,0.0,0.0,0.0,0.0,0.0,-21.071495056152344,0.0,0.0,-0.22283688187599182,0.0,0.0,0.0,5890.5830078125,-15288.4443359375,-1673.4765625,0.0,0.0,45.0,0.0,0.0
1731876102636.0,0.0,0.0,-20.0,0.0,0.0,0.0,0.0,0.0,0.0,0.0,0.0,0.0,0.0,0.0,0.0,-21.326845169067383,0.0,0.0,-0.21367408335208893,0.0,0.0,0.0,5958.65966796875,-15262.0390625,-1604.6650390625,0.0,0.0,45.0,0.0,0.0
1731876102652.0,0.0,0.0,-20.0,0.0,0.0,0.0,0.0,0.0,0.0,0.0,0.0,0.0,0.0,0.0,0.0,-21.571699142456055,0.0,0.0,-0.20895583927631378,0.0,0.0,0.0,6023.82763671875,-15236.435546875,-1569.231689453125,0.0,0.0,45.0,0.0,0.0
1731876102686.0,0.0,0.0,-20.0,0.0,0.0,0.0,0.0,0.0,0.0,0.0,0.0,0.0,0.0,0.0,0.0,-22.045217514038086,0.0,0.0,-0.1994670033454895,0.0,0.0,0.0,6149.541015625,-15186.130859375,-1497.9716796875,0.0,0.0,45.0,0.0,0.0
1731876102686.0,0.0,0.0,-20.0,0.0,0.0,0.0,0.0,0.0,0.0,0.0,0.0,0.0,0.0,0.0,0.0,-22.045217514038086,0.0,0.0,-0.1994670033454895,0.0,0.0,0.0,6149.541015625,-15186.130859375,-1497.9716796875,0.0,0.0,45.0,0.0,0.0
1731876102734.0,0.0,0.0,-20.0,0.0,0.0,0.0,0.0,0.0,0.0,0.0,0.0,0.0,0.0,0.0,0.0,-22.49676513671875,0.0,0.0,-0.18482480943202972,0.0,0.0,0.0,6269.03125,-15137.1962890625,-1388.0107421875,0.0,0.0,45.0,0.0,0.0
1731876102751.0,0.0,0.0,-20.0,0.0,0.0,0.0,0.0,0.0,0.0,0.0,0.0,0.0,0.0,0.0,0.0,-22.70855712890625,0.0,0.0,-0.1797206699848175,0.0,0.0,0.0,6324.9423828125,-15113.9189453125,-1349.6793212890625,0.0,0.0,45.0,0.0,0.0
1731876102785.0,0.0,0.0,-20.0,0.0,0.0,0.0,0.0,0.0,0.0,0.0,0.0,0.0,0.0,0.0,0.0,-23.11464500427246,0.0,0.0,-0.1694520115852356,0.0,0.0,0.0,6431.90283203125,-15068.7109375,-1272.56298828125,0.0,0.0,45.0,0.0,0.0
1731876102801.0,0.0,0.0,-20.0,0.0,0.0,0.0,0.0,0.0,0.0,0.0,0.0,0.0,0.0,0.0,0.0,-23.308826446533203,0.0,0.0,-0.1644153743982315,0.0,0.0,0.0,6482.935546875,-15046.826171875,-1234.7384033203125,0.0,0.0,45.0,0.0,0.0
1731876102801.0,0.0,0.0,-20.0,0.0,0.0,0.0,0.0,0.0,0.0,0.0,0.0,0.0,0.0,0.0,0.0,-23.308826446533203,0.0,0.0,-0.1644153743982315,0.0,0.0,0.0,6482.935546875,-15046.826171875,-1234.7384033203125,0.0,0.0,45.0,0.0,0.0
1731876102852.0,0.0,0.0,-20.0,0.0,0.0,0.0,0.0,0.0,0.0,0.0,0.0,0.0,0.0,0.0,0.0,-23.67934799194336,0.0,0.0,-0.14863130450248718,0.0,0.0,0.0,6580.1044921875,-15004.587890625,-1116.2021484375,0.0,0.0,45.0,0.0,0.0
1731876102868.0,0.0,0.0,-20.0,0.0,0.0,0.0,0.0,0.0,0.0,0.0,0.0,0.0,0.0,0.0,0.0,-23.84966468811035,0.0,0.0,-0.14329779148101807,0.0,0.0,0.0,6624.677734375,-14984.9638671875,-1076.1480712890625,0.0,0.0,45.0,0.0,0.0
1731876102885.0,0.0,0.0,-20.0,0.0,0.0,0.0,0.0,0.0,0.0,0.0,0.0,0.0,0.0,0.0,0.0,-24.013872146606445,0.0,0.0,-0.13805250823497772,0.0,0.0,0.0,6667.5966796875,-14965.916015625,-1036.7567138671875,0.0,0.0,45.0,0.0,0.0
1731876102901.0,0.0,0.0,-20.0,0.0,0.0,0.0,0.0,0.0,0.0,0.0,0.0,0.0,0.0,0.0,0.0,-24.17207145690918,0.0,0.0,-0.1326712965965271,0.0,0.0,0.0,6708.8935546875,-14947.4482421875,-996.344482421875,0.0,0.0,45.0,0.0,0.0
1731876102951.0,0.0,0.0,-20.0,0.0,0.0,0.0,0.0,0.0,0.0,0.0,0.0,0.0,0.0,0.0,0.0,-24.463594436645508,0.0,0.0,-0.1162131205201149,0.0,0.0,0.0,6784.8603515625,-14913.119140625,-872.7456665039062,0.0,0.0,45.0,0.0,0.0
1731876102968.0,0.0,0.0,-20.0,0.0,0.0,0.0,0.0,0.0,0.0,0.0,0.0,0.0,0.0,0.0,0.0,-24.59676742553711,0.0,0.0,-0.11069407314062119,0.0,0.0,0.0,6819.5048828125,-14897.3095703125,-831.29833984375,0.0,0.0,45.0,0.0,0.0
1731876102984.0,0.0,0.0,-20.0,0.0,0.0,0.0,0.0,0.0,0.0,0.0,0.0,0.0,0.0,0.0,0.0,-24.72361183166504,0.0,0.0,-0.10514453053474426,0.0,0.0,0.0,6852.4677734375,-14882.1767578125,-789.6220092773438,0.0,0.0,45.0,0.0,0.0
1731876103001.0,0.0,0.0,-20.0,0.0,0.0,0.0,0.0,0.0,0.0,0.0,0.0,0.0,0.0,0.0,0.0,-24.844099044799805,0.0,0.0,-0.09959683567285538,0.0,0.0,0.0,6883.74853515625,-14867.7333984375,-747.9595336914062,0.0,0.0,45.0,0.0,0.0
1731876103051.0,0.0,0.0,-20.0,0.0,0.0,0.0,0.0,0.0,0.0,0.0,0.0,0.0,0.0,0.0,0.0,-25.059375762939453,0.0,0.0,-0.08264070004224777,0.0,0.0,0.0,6939.5625,-14841.763671875,-620.62109375,0.0,0.0,45.0,0.0,0.0
1731876103068.0,0.0,0.0,-20.0,0.0,0.0,0.0,0.0,0.0,0.0,0.0,0.0,0.0,0.0,0.0,0.0,-25.15407371520996,0.0,0.0,-0.07689882069826126,0.0,0.0,0.0,6964.0830078125,-14830.2734375,-577.5003051757812,0.0,0.0,45.0,0.0,0.0
1731876103085.0,0.0,0.0,-20.0,0.0,0.0,0.0,0.0,0.0,0.0,0.0,0.0,0.0,0.0,0.0,0.0,-25.24219512939453,0.0,0.0,-0.07115627825260162,0.0,0.0,0.0,6986.88427734375,-14819.5439453125,-534.3745727539062,0.0,0.0,45.0,0.0,0.0
1731876103101.0,0.0,0.0,-20.0,0.0,0.0,0.0,0.0,0.0,0.0,0.0,0.0,0.0,0.0,0.0,0.0,-25.323732376098633,0.0,0.0,-0.06547809392213821,0.0,0.0,0.0,7007.966796875,-14809.5859375,-491.73211669921875,0.0,0.0,45.0,0.0,0.0
1731876103135.0,0.0,0.0,-20.0,0.0,0.0,0.0,0.0,0.0,0.0,0.0,0.0,0.0,0.0,0.0,0.0,-25.39876365661621,0.0,0.0,-0.053847480565309525,0.0,0.0,0.0,7027.3544921875,-14800.3955078125,-404.3876953125,0.0,0.0,45.0,0.0,0.0
1731876103168.0,0.0,0.0,-20.0,0.0,0.0,0.0,0.0,0.0,0.0,0.0,0.0,0.0,0.0,0.0,0.0,-25.515512466430664,0.0,0.0,-0.042251862585544586,0.0,0.0,0.0,7057.4970703125,-14786.046875,-317.30609130859375,0.0,0.0,45.0,0.0,0.0
1731876103184.0,0.0,0.0,-20.0,0.0,0.0,0.0,0.0,0.0,0.0,0.0,0.0,0.0,0.0,0.0,0.0,-25.563928604125977,0.0,0.0,-0.03646763414144516,0.0,0.0,0.0,7069.98974609375,-14780.0791015625,-273.8672790527344,0.0,0.0,45.0,0.0,0.0
1731876103184.0,0.0,0.0,-20.0,0.0,0.0,0.0,0.0,0.0,0.0,0.0,0.0,0.0,0.0,0.0,0.0,-25.563928604125977,0.0,0.0,-0.03646763414144516,0.0,0.0,0.0,7069.98974609375,-14780.0791015625,-273.8672790527344,0.0,0.0,45.0,0.0,0.0
1731876103234.0,0.0,0.0,-20.0,0.0,0.0,0.0,0.0,0.0,0.0,0.0,0.0,0.0,0.0,0.0,0.0,-25.641016006469727,0.0,0.0,-0.019093358889222145,0.0,0.0,0.0,7089.8681640625,-14770.552734375,-143.38868713378906,0.0,0.0,45.0,0.0,0.0
1731876103251.0,0.0,0.0,-20.0,0.0,0.0,0.0,0.0,0.0,0.0,0.0,0.0,0.0,0.0,0.0,0.0,-25.662893295288086,0.0,0.0,-0.013203672133386135,0.0,0.0,0.0,7095.50830078125,-14767.8427734375,-99.15789031982422,0.0,0.0,45.0,0.0,0.0
1731876103268.0,0.0,0.0,-20.0,0.0,0.0,0.0,0.0,0.0,0.0,0.0,0.0,0.0,0.0,0.0,0.0,-25.678028106689453,0.0,0.0,-0.007192371878772974,0.0,0.0,0.0,7099.40869140625,-14765.9697265625,-54.0137939453125,0.0,0.0,45.0,0.0,0.0
1731876103285.0,0.0,0.0,-20.0,0.0,0.0,0.0,0.0,0.0,0.0,0.0,0.0,0.0,0.0,0.0,0.0,-25.686267852783203,0.0,0.0,-0.0013612010516226292,0.0,0.0,0.0,7101.53173828125,-14764.94921875,-10.22244644165039,0.0,0.0,45.0,0.0,0.0
1731876103301.0,0.0,0.0,-20.0,0.0,0.0,0.0,0.0,0.0,0.0,0.0,0.0,0.0,0.0,0.0,0.0,-25.687829971313477,0.0,0.0,0.00456681614741683,0.0,0.0,0.0,7101.93505859375,-14764.7548828125,34.296207427978516,0.0,0.0,45.0,0.0,0.0
1731876103351.0,0.0,0.0,-20.0,0.0,0.0,0.0,0.0,0.0,0.0,0.0,0.0,0.0,0.0,0.0,0.0,-25.664003372192383,0.0,0.0,0.022079549729824066,0.0,0.0,0.0,7095.7939453125,-14767.7080078125,165.81460571289062,0.0,0.0,45.0,0.0,0.0
1731876103368.0,0.0,0.0,-20.0,0.0,0.0,0.0,0.0,0.0,0.0,0.0,0.0,0.0,0.0,0.0,0.0,-25.638704299926758,0.0,0.0,0.02797117829322815,0.0,0.0,0.0,7089.271484375,-14770.8388671875,210.0599822998047,0.0,0.0,45.0,0.0,0.0
1731876103385.0,0.0,0.0,-20.0,0.0,0.0,0.0,0.0,0.0,0.0,0.0,0.0,0.0,0.0,0.0,0.0,-25.606651306152344,0.0,0.0,0.03381222113966942,0.0,0.0,0.0,7081.00830078125,-14774.8017578125,253.9254608154297,0.0,0.0,45.0,0.0,0.0
1731876103402.0,0.0,0.0,-20.0,0.0,0.0,0.0,0.0,0.0,0.0,0.0,0.0,0.0,0.0,0.0,0.0,-25.567903518676758,0.0,0.0,0.03968644514679909,0.0,0.0,0.0,7071.0146484375,-14779.587890625,298.0401306152344,0.0,0.0,45.0,0.0,0.0
1731876103418.0,0.0,0.0,-20.0,0.0,0.0,0.0,0.0,0.0,0.0,0.0,0.0,0.0,0.0,0.0,0.0,-25.52242660522461,0.0,0.0,0.04553882032632828,0.0,0.0,0.0,7059.28173828125,-14785.1943359375,341.99072265625,0.0,0.0,45.0,0.0,0.0
1731876103468.0,0.0,0.0,-20.0,0.0,0.0,0.0,0.0,0.0,0.0,0.0,0.0,0.0,0.0,0.0,0.0,-25.40471649169922,0.0,0.0,0.06289637833833694,0.0,0.0,0.0,7028.8916015625,-14799.666015625,472.3437805175781,0.0,0.0,45.0,0.0,0.0
1731876103485.0,0.0,0.0,-20.0,0.0,0.0,0.0,0.0,0.0,0.0,0.0,0.0,0.0,0.0,0.0,0.0,-25.332643508911133,0.0,0.0,0.06871949881315231,0.0,0.0,0.0,7010.27001953125,-14808.4970703125,516.0746459960938,0.0,0.0,45.0,0.0,0.0
1731876103502.0,0.0,0.0,-20.0,0.0,0.0,0.0,0.0,0.0,0.0,0.0,0.0,0.0,0.0,0.0,0.0,-25.253894805908203,0.0,0.0,0.0744287520647049,0.0,0.0,0.0,6989.91015625,-14818.1181640625,558.950439453125,0.0,0.0,45.0,0.0,0.0
1731876103519.0,0.0,0.0,-20.0,0.0,0.0,0.0,0.0,0.0,0.0,0.0,0.0,0.0,0.0,0.0,0.0,-25.16860580444336,0.0,0.0,0.08011749386787415,0.0,0.0,0.0,6967.84423828125,-14828.5068359375,601.672119140625,0.0,0.0,45.0,0.0,0.0
1731876103552.0,0.0,0.0,-20.0,0.0,0.0,0.0,0.0,0.0,0.0,0.0,0.0,0.0,0.0,0.0,0.0,-25.076797485351562,0.0,0.0,0.09163416922092438,0.0,0.0,0.0,6944.07373046875,-14839.65234375,688.160888671875,0.0,0.0,45.0,0.0,0.0
1731876103585.0,0.0,0.0,-20.0,0.0,0.0,0.0,0.0,0.0,0.0,0.0,0.0,0.0,0.0,0.0,0.0,-24.860706329345703,0.0,0.0,0.10266683250665665,0.0,0.0,0.0,6888.05712890625,-14865.736328125,771.0147705078125,0.0,0.0,45.0,0.0,0.0
1731876103602.0,0.0,0.0,-20.0,0.0,0.0,0.0,0.0,0.0,0.0,0.0,0.0,0.0,0.0,0.0,0.0,-24.743061065673828,0.0,0.0,0.10836202651262283,0.0,0.0,0.0,6857.51904296875,-14879.849609375,813.7849731445312,0.0,0.0,45.0,0.0,0.0
1731876103619.0,0.0,0.0,-20.0,0.0,0.0,0.0,0.0,0.0,0.0,0.0,0.0,0.0,0.0,0.0,0.0,-24.618885040283203,0.0,0.0,0.11389410495758057,0.0,0.0,0.0,6825.25439453125,-14894.6748046875,855.3302001953125,0.0,0.0,45.0,0.0,0.0
1731876103652.0,0.0,0.0,-20.0,0.0,0.0,0.0,0.0,0.0,0.0,0.0,0.0,0.0,0.0,0.0,0.0,-24.488372802734375,0.0,0.0,0.12476234138011932,0.0,0.0,0.0,6791.30859375,-14910.18359375,936.94921875,0.0,0.0,45.0,0.0,0.0
1731876103685.0,0.0,0.0,-20.0,0.0,0.0,0.0,0.0,0.0,0.0,0.0,0.0,0.0,0.0,0.0,0.0,-24.196016311645508,0.0,0.0,0.13569337129592896,0.0,0.0,0.0,6715.140625,-14944.642578125,1019.0399169921875,0.0,0.0,45.0,0.0,0.0
1731876103702.0,0.0,0.0,-20.0,0.0,0.0,0.0,0.0,0.0,0.0,0.0,0.0,0.0,0.0,0.0,0.0,-24.040523529052734,0.0,0.0,0.14121048152446747,0.0,0.0,0.0,6674.5576171875,-14962.8115234375,1060.47265625,0.0,0.0,45.0,0.0,0.0
1731876103702.0,0.0,0.0,-20.0,0.0,0.0,0.0,0.0,0.0,0.0,0.0,0.0,0.0,0.0,0.0,0.0,-24.040523529052734,0.0,0.0,0.14121048152446747,0.0,0.0,0.0,6674.5576171875,-14962.8115234375,1060.47265625,0.0,0.0,45.0,0.0,0.0
1731876103752.0,0.0,0.0,-20.0,0.0,0.0,0.0,0.0,0.0,0.0,0.0,0.0,0.0,0.0,0.0,0.0,-23.71079444885254,0.0,0.0,0.15701913833618164,0.0,0.0,0.0,6588.3388671875,-15000.974609375,1179.1937255859375,0.0,0.0,45.0,0.0,0.0
1731876103769.0,0.0,0.0,-20.0,0.0,0.0,0.0,0.0,0.0,0.0,0.0,0.0,0.0,0.0,0.0,0.0,-23.530868530273438,0.0,0.0,0.16228044033050537,0.0,0.0,0.0,6541.19873046875,-15021.5888671875,1218.705322265625,0.0,0.0,45.0,0.0,0.0
1731876103803.0,0.0,0.0,-20.0,0.0,0.0,0.0,0.0,0.0,0.0,0.0,0.0,0.0,0.0,0.0,0.0,-23.152952194213867,0.0,0.0,0.17273859679698944,0.0,0.0,0.0,6441.97607421875,-15064.4072265625,1297.2447509765625,0.0,0.0,45.0,0.0,0.0
1731876103803.0,0.0,0.0,-20.0,0.0,0.0,0.0,0.0,0.0,0.0,0.0,0.0,0.0,0.0,0.0,0.0,-23.152952194213867,0.0,0.0,0.17273859679698944,0.0,0.0,0.0,6441.97607421875,-15064.4072265625,1297.2447509765625,0.0,0.0,45.0,0.0,0.0
1731876103852.0,0.0,0.0,-20.0,0.0,0.0,0.0,0.0,0.0,0.0,0.0,0.0,0.0,0.0,0.0,0.0,-22.751333236694336,0.0,0.0,0.18772445619106293,0.0,0.0,0.0,6336.22412109375,-15109.1923828125,1409.7867431640625,0.0,0.0,45.0,0.0,0.0
1731876103869.0,0.0,0.0,-20.0,0.0,0.0,0.0,0.0,0.0,0.0,0.0,0.0,0.0,0.0,0.0,0.0,-22.536216735839844,0.0,0.0,0.1926812082529068,0.0,0.0,0.0,6279.4521484375,-15132.8759765625,1447.01123046875,0.0,0.0,45.0,0.0,0.0
1731876103902.0,0.0,0.0,-20.0,0.0,0.0,0.0,0.0,0.0,0.0,0.0,0.0,0.0,0.0,0.0,0.0,-22.089126586914062,0.0,0.0,0.2023603916168213,0.0,0.0,0.0,6161.177734375,-15181.4130859375,1519.70068359375,0.0,0.0,45.0,0.0,0.0
1731876103902.0,0.0,0.0,-20.0,0.0,0.0,0.0,0.0,0.0,0.0,0.0,0.0,0.0,0.0,0.0,0.0,-22.089126586914062,0.0,0.0,0.2023603916168213,0.0,0.0,0.0,6161.177734375,-15181.4130859375,1519.70068359375,0.0,0.0,45.0,0.0,0.0
1731876103953.0,0.0,0.0,-20.0,0.0,0.0,0.0,0.0,0.0,0.0,0.0,0.0,0.0,0.0,0.0,0.0,-21.620019912719727,0.0,0.0,0.21651363372802734,0.0,0.0,0.0,6036.6748046875,-15231.349609375,1625.98974609375,0.0,0.0,45.0,0.0,0.0
1731876103969.0,0.0,0.0,-20.0,0.0,0.0,0.0,0.0,0.0,0.0,0.0,0.0,0.0,0.0,0.0,0.0,-21.371912002563477,0.0,0.0,0.2210424542427063,0.0,0.0,0.0,5970.66259765625,-15257.3486328125,1660.0006103515625,0.0,0.0,45.0,0.0,0.0
1731876104002.0,0.0,0.0,-20.0,0.0,0.0,0.0,0.0,0.0,0.0,0.0,0.0,0.0,0.0,0.0,0.0,-20.86018943786621,0.0,0.0,0.2299836128950119,0.0,0.0,0.0,5834.1591796875,-15310.064453125,1727.1475830078125,0.0,0.0,45.0,0.0,0.0
1731876104002.0,0.0,0.0,-20.0,0.0,0.0,0.0,0.0,0.0,0.0,0.0,0.0,0.0,0.0,0.0,0.0,-20.86018943786621,0.0,0.0,0.2299836128950119,0.0,0.0,0.0,5834.1591796875,-15310.064453125,1727.1475830078125,0.0,0.0,45.0,0.0,0.0
1731876104052.0,0.0,0.0,-20.0,0.0,0.0,0.0,0.0,0.0,0.0,0.0,0.0,0.0,0.0,0.0,0.0,-20.32802391052246,0.0,0.0,0.24297122657299042,0.0,0.0,0.0,5691.708984375,-15363.5908203125,1824.682861328125,0.0,0.0,45.0,0.0,0.0
1731876104069.0,0.0,0.0,-20.0,0.0,0.0,0.0,0.0,0.0,0.0,0.0,0.0,0.0,0.0,0.0,0.0,-20.049602508544922,0.0,0.0,0.24717198312282562,0.0,0.0,0.0,5616.98486328125,-15391.0673828125,1856.22998046875,0.0,0.0,45.0,0.0,0.0
1731876104086.0,0.0,0.0,-20.0,0.0,0.0,0.0,0.0,0.0,0.0,0.0,0.0,0.0,0.0,0.0,0.0,-19.766361236572266,0.0,0.0,0.25132638216018677,0.0,0.0,0.0,5540.8310546875,-15418.6455078125,1887.4290771484375,0.0,0.0,45.0,0.0,0.0
1731876104102.0,0.0,0.0,-20.0,0.0,0.0,0.0,0.0,0.0,0.0,0.0,0.0,0.0,0.0,0.0,0.0,-19.478364944458008,0.0,0.0,0.25532159209251404,0.0,0.0,0.0,5463.25927734375,-15446.302734375,1917.4324951171875,0.0,0.0,45.0,0.0,0.0
1731876104119.0,0.0,0.0,-20.0,0.0,0.0,0.0,0.0,0.0,0.0,0.0,0.0,0.0,0.0,0.0,0.0,-19.185789108276367,0.0,0.0,0.2593348026275635,0.0,0.0,0.0,5384.3134765625,-15473.9970703125,1947.5712890625,0.0,0.0,45.0,0.0,0.0
1731876104169.0,0.0,0.0,-20.0,0.0,0.0,0.0,0.0,0.0,0.0,0.0,0.0,0.0,0.0,0.0,0.0,-18.58253288269043,0.0,0.0,0.27087706327438354,0.0,0.0,0.0,5221.09521484375,-15529.830078125,2034.252197265625,0.0,0.0,45.0,0.0,0.0
1731876104186.0,0.0,0.0,-20.0,0.0,0.0,0.0,0.0,0.0,0.0,0.0,0.0,0.0,0.0,0.0,0.0,-18.272130966186523,0.0,0.0,0.274572491645813,0.0,0.0,0.0,5136.8857421875,-15557.888671875,2062.00439453125,0.0,0.0,45.0,0.0,0.0
1731876104202.0,0.0,0.0,-20.0,0.0,0.0,0.0,0.0,0.0,0.0,0.0,0.0,0.0,0.0,0.0,0.0,-17.95749282836914,0.0,0.0,0.2781717777252197,0.0,0.0,0.0,5051.37353515625,-15585.8623046875,2089.034423828125,0.0,0.0,45.0,0.0,0.0
1731876104219.0,0.0,0.0,-20.0,0.0,0.0,0.0,0.0,0.0,0.0,0.0,0.0,0.0,0.0,0.0,0.0,-17.638731002807617,0.0,0.0,0.2816944420337677,0.0,0.0,0.0,4964.583984375,-15613.724609375,2115.4892578125,0.0,0.0,45.0,0.0,0.0
1731876104269.0,0.0,0.0,-20.0,0.0,0.0,0.0,0.0,0.0,0.0,0.0,0.0,0.0,0.0,0.0,0.0,-16.985349655151367,0.0,0.0,0.29181063175201416,0.0,0.0,0.0,4786.2119140625,-15669.3212890625,2191.460693359375,0.0,0.0,45.0,0.0,0.0
1731876104285.0,0.0,0.0,-20.0,0.0,0.0,0.0,0.0,0.0,0.0,0.0,0.0,0.0,0.0,0.0,0.0,-16.65096092224121,0.0,0.0,0.29501667618751526,0.0,0.0,0.0,4694.681640625,-15696.9873046875,2215.53759765625,0.0,0.0,45.0,0.0,0.0
1731876104302.0,0.0,0.0,-20.0,0.0,0.0,0.0,0.0,0.0,0.0,0.0,0.0,0.0,0.0,0.0,0.0,-16.312894821166992,0.0,0.0,0.2981584072113037,0.0,0.0,0.0,4601.982421875,-15724.4150390625,2239.131591796875,0.0,0.0,45.0,0.0,0.0
1731876104319.0,0.0,0.0,-20.0,0.0,0.0,0.0,0.0,0.0,0.0,0.0,0.0,0.0,0.0,0.0,0.0,-15.971229553222656,0.0,0.0,0.301222562789917,0.0,0.0,0.0,4508.13330078125,-15751.578125,2262.14306640625,0.0,0.0,45.0,0.0,0.0
1731876104352.0,0.0,0.0,-20.0,0.0,0.0,0.0,0.0,0.0,0.0,0.0,0.0,0.0,0.0,0.0,0.0,-15.626057624816895,0.0,0.0,0.30708691477775574,0.0,0.0,0.0,4413.1591796875,-15778.451171875,2306.18359375,0.0,0.0,45.0,0.0,0.0
1731876104386.0,0.0,0.0,-20.0,0.0,0.0,0.0,0.0,0.0,0.0,0.0,0.0,0.0,0.0,0.0,0.0,-14.919069290161133,0.0,0.0,0.31262853741645813,0.0,0.0,0.0,4218.13330078125,-15831.703125,2347.80029296875,0.0,0.0,45.0,0.0,0.0
1731876104402.0,0.0,0.0,-20.0,0.0,0.0,0.0,0.0,0.0,0.0,0.0,0.0,0.0,0.0,0.0,0.0,-14.560821533203125,0.0,0.0,0.31521138548851013,0.0,0.0,0.0,4119.06201171875,-15857.767578125,2367.197265625,0.0,0.0,45.0,0.0,0.0
1731876104419.0,0.0,0.0,-20.0,0.0,0.0,0.0,0.0,0.0,0.0,0.0,0.0,0.0,0.0,0.0,0.0,-14.199616432189941,0.0,0.0,0.31775525212287903,0.0,0.0,0.0,4019.01025390625,-15883.419921875,2386.30126953125,0.0,0.0,45.0,0.0,0.0
1731876104453.0,0.0,0.0,-20.0,0.0,0.0,0.0,0.0,0.0,0.0,0.0,0.0,0.0,0.0,0.0,0.0,-13.835494041442871,0.0,0.0,0.3226233720779419,0.0,0.0,0.0,3917.988037109375,-15908.6396484375,2422.8603515625,0.0,0.0,45.0,0.0,0.0
1731876104469.0,0.0,0.0,-20.0,0.0,0.0,0.0,0.0,0.0,0.0,0.0,0.0,0.0,0.0,0.0,0.0,-13.465794563293457,0.0,0.0,0.3249100148677826,0.0,0.0,0.0,3815.25732421875,-15933.5888671875,2440.03271484375,0.0,0.0,45.0,0.0,0.0
1731876104502.0,0.0,0.0,-20.0,0.0,0.0,0.0,0.0,0.0,0.0,0.0,0.0,0.0,0.0,0.0,0.0,-12.718738555908203,0.0,0.0,0.3291257321834564,0.0,0.0,0.0,3607.187255859375,-15981.978515625,2471.692138671875,0.0,0.0,45.0,0.0,0.0
1731876104502.0,0.0,0.0,-20.0,0.0,0.0,0.0,0.0,0.0,0.0,0.0,0.0,0.0,0.0,0.0,0.0,-12.718738555908203,0.0,0.0,0.3291257321834564,0.0,0.0,0.0,3607.187255859375,-15981.978515625,2471.692138671875,0.0,0.0,45.0,0.0,0.0
1731876104552.0,0.0,0.0,-20.0,0.0,0.0,0.0,0.0,0.0,0.0,0.0,0.0,0.0,0.0,0.0,0.0,-11.962071418762207,0.0,0.0,0.3348611891269684,0.0,0.0,0.0,3395.815673828125,-16028.2216796875,2514.7646484375,0.0,0.0,45.0,0.0,0.0
1731876104569.0,0.0,0.0,-20.0,0.0,0.0,0.0,0.0,0.0,0.0,0.0,0.0,0.0,0.0,0.0,0.0,-11.578349113464355,0.0,0.0,0.3365858197212219,0.0,0.0,0.0,3288.395751953125,-16050.6044921875,2527.716552734375,0.0,0.0,45.0,0.0,0.0
1731876104586.0,0.0,0.0,-20.0,0.0,0.0,0.0,0.0,0.0,0.0,0.0,0.0,0.0,0.0,0.0,0.0,-11.192649841308594,0.0,0.0,0.3382282555103302,0.0,0.0,0.0,3180.273681640625,-16072.3779296875,2540.051025390625,0.0,0.0,45.0,0.0,0.0
1731876104602.0,0.0,0.0,-20.0,0.0,0.0,0.0,0.0,0.0,0.0,0.0,0.0,0.0,0.0,0.0,0.0,-10.805068016052246,0.0,0.0,0.3397560119628906,0.0,0.0,0.0,3071.47900390625,-16093.5234375,2551.524169921875,0.0,0.0,45.0,0.0,0.0
1731876104619.0,0.0,0.0,-20.0,0.0,0.0,0.0,0.0,0.0,0.0,0.0,0.0,0.0,0.0,0.0,0.0,-10.41573715209961,0.0,0.0,0.34116458892822266,0.0,0.0,0.0,2962.0517578125,-16114.0224609375,2562.1025390625,0.0,0.0,45.0,0.0,0.0
1731876104669.0,0.0,0.0,-20.0,0.0,0.0,0.0,0.0,0.0,0.0,0.0,0.0,0.0,0.0,0.0,0.0,-9.63085651397705,0.0,0.0,0.3449389636516571,0.0,0.0,0.0,2741.038818359375,-16153.0849609375,2590.447509765625,0.0,0.0,45.0,0.0,0.0
1731876104686.0,0.0,0.0,-20.0,0.0,0.0,0.0,0.0,0.0,0.0,0.0,0.0,0.0,0.0,0.0,0.0,-9.235586166381836,0.0,0.0,0.34601226449012756,0.0,0.0,0.0,2629.5380859375,-16171.6103515625,2598.5078125,0.0,0.0,45.0,0.0,0.0
1731876104703.0,0.0,0.0,-20.0,0.0,0.0,0.0,0.0,0.0,0.0,0.0,0.0,0.0,0.0,0.0,0.0,-8.839086532592773,0.0,0.0,0.3469749689102173,0.0,0.0,0.0,2517.56494140625,-16189.419921875,2605.73779296875,0.0,0.0,45.0,0.0,0.0
1731876104719.0,0.0,0.0,-20.0,0.0,0.0,0.0,0.0,0.0,0.0,0.0,0.0,0.0,0.0,0.0,0.0,-8.441482543945312,0.0,0.0,0.34783652424812317,0.0,0.0,0.0,2405.15869140625,-16206.5009765625,2612.207763671875,0.0,0.0,45.0,0.0,0.0
1731876104753.0,0.0,0.0,-20.0,0.0,0.0,0.0,0.0,0.0,0.0,0.0,0.0,0.0,0.0,0.0,0.0,-8.042892456054688,0.0,0.0,0.34927865862846375,0.0,0.0,0.0,2292.357421875,-16222.8408203125,2623.0380859375,0.0,0.0,45.0,0.0,0.0
