ts,linPos_x,linPos_y,linPos_z,linVel_x,linVel_y,linVel_z,linAcc_x,linAcc_y,linAcc_z,force_x,force_y,force_z,torque_x,torque_y,torque_z,euler_x,euler_y,euler_z,angVel_x,angVel_y,angVel_z,accelerometer_x,accelerometer_y,accelerometer_z,gyroscope_x,gyroscope_y,gyroscope_z,magnetometer_x,magnetometer_y,magnetometer_z
1731876432561.0,0.0,0.0,-20.0,0.0,0.0,0.0,0.0,0.0,0.0,0.0,0.0,0.0,0.0,0.0,0.0,0.0,0.0,0.0,0.0,0.0,0.0,0.0,0.0,-16384.0,0.0,0.0,0.0,45.0,0.0,0.0
1731876432594.0,0.0,0.0,-20.0,0.0,0.0,0.0,0.0,0.0,0.0,0.0,0.0,0.0,0.0,0.0,0.0,0.0,0.0,0.0,0.0,0.0,0.0,0.0,0.0,-16384.0,0.0,0.0,0.0,45.0,0.0,0.0
1731876432594.0,0.0,0.0,-20.0,0.0,0.0,0.0,0.0,0.0,0.0,0.0,0.0,0.0,0.0,0.0,0.0,0.0,0.0,0.0,0.0,0.0,0.0,0.0,0.0,-16384.0,0.0,0.0,0.0,45.0,0.0,0.0
1731876432644.0,0.0,0.0,-20.0,0.0,0.0,0.0,0.0,0.0,0.0,0.0,0.0,0.0,0.0,0.0,0.0,0.0,0.0,0.0,0.0,0.0,0.0,0.0,0.0,-16384.0,0.0,0.0,0.0,45.0,0.0,0.0
1731876432661.0,0.0,0.0,-20.0,0.0,0.0,0.0,0.0,0.0,0.0,0.0,0.0,0.0,0.0,0.0,0.0,0.0,0.0,0.0,0.0,0.0,0.0,0.0,0.0,-16384.0,0.0,0.0,0.0,45.0,0.0,0.0
1731876432678.0,0.0,0.0,-20.0,0.0,0.0,0.0,0.0,0.0,0.0,0.0,0.0,0.0,0.0,0.0,0.0,0.0,0.0,0.0,0.0,0.0,0.0,0.0,0.0,-16384.0,0.0,0.0,0.0,45.0,0.0,0.0
1731876432695.0,0.0,0.0,-20.0,0.0,0.0,0.0,0.0,0.0,0.0,0.0,0.0,0.0,0.0,0.0,0.0,0.0,0.0,0.0,0.0,0.0,0.0,0.0,0.0,-16384.0,0.0,0.0,0.0,45.0,0.0,0.0
1731876432711.0,0.0,0.0,-20.0,0.0,0.0,0.0,0.0,0.0,0.0,0.0,0.0,0.0,0.0,0.0,0.0,0.0,0.0,0.0,0.0,0.0,0.0,0.0,0.0,-16384.0,0.0,0.0,0.0,45.0,0.0,0.0
1731876432761.0,0.0,0.0,-20.0,0.0,0.0,0.0,0.0,0.0,0.0,0.0,0.0,0.0,0.0,0.0,0.0,0.0,0.0,0.0,0.0,0.0,0.0,0.0,0.0,-16384.0,0.0,0.0,0.0,45.0,0.0,0.0
1731876432778.0,0.0,0.0,-20.0,0.0,0.0,0.0,0.0,0.0,0.0,0.0,0.0,0.0,0.0,0.0,0.0,0.0,0.0,0.0,0.0,0.0,0.0,0.0,0.0,-16384.0,0.0,0.0,0.0,45.0,0.0,0.0
1731876432795.0,0.0,0.0,-20.0,0.0,0.0,0.0,0.0,0.0,0.0,0.0,0.0,0.0,0.0,0.0,0.0,0.0,0.0,0.0,0.0,0.0,0.0,0.0,0.0,-16384.0,0.0,0.0,0.0,45.0,0.0,0.0
1731876432811.0,0.0,0.0,-20.0,0.0,0.0,0.0,0.0,0.0,0.0,0.0,0.0,0.0,0.0,0.0,0.0,0.0,0.0,0.0,0.0,0.0,0.0,0.0,0.0,-16384.0,0.0,0.0,0.0,45.0,0.0,0.0
1731876432845.0,0.0,0.0,-20.0,0.0,0.0,0.0,0.0,0.0,0.0,0.0,0.0,0.0,0.0,0.0,0.0,0.0,0.0,0.0,0.0,0.0,0.0,0.0,0.0,-16384.0,0.0,0.0,0.0,45.0,0.0,0.0
1731876432878.0,0.0,0.0,-20.0,0.0,0.0,0.0,0.0,0.0,0.0,0.0,0.0,0.0,0.0,0.0,0.0,0.0,0.0,0.0,0.0,0.0,0.0,0.0,0.0,-16384.0,0.0,0.0,0.0,45.0,0.0,0.0
1731876432895.0,0.0,0.0,-20.0,0.0,0.0,0.0,0.0,0.0,0.0,0.0,0.0,0.0,0.0,0.0,0.0,0.0,0.0,0.0,0.0,0.0,0.0,0.0,0.0,-16384.0,0.0,0.0,0.0,45.0,0.0,0.0
1731876432911.0,0.0,0.0,-20.0,0.0,0.0,0.0,0.0,0.0,0.0,0.0,0.0,0.0,0.0,0.0,0.0,0.0,0.0,0.0,0.0,0.0,0.0,0.0,0.0,-16384.0,0.0,0.0,0.0,45.0,0.0,0.0
1731876432945.0,0.0,0.0,-20.0,0.0,0.0,0.0,0.0,0.0,0.0,0.0,0.0,0.0,0.0,0.0,0.0,0.0,0.0,0.0,0.0,0.0,0.0,0.0,0.0,-16384.0,0.0,0.0,0.0,45.0,0.0,0.0
1731876432978.0,0.0,0.0,-20.0,0.0,0.0,0.0,0.0,0.0,0.0,0.0,0.0,0.0,0.0,0.0,0.0,0.0,0.0,0.0,0.0,0.0,0.0,0.0,0.0,-16384.0,0.0,0.0,0.0,45.0,0.0,0.0
1731876432995.0,0.0,0.0,-20.0,0.0,0.0,0.0,0.0,0.0,0.0,0.0,0.0,0.0,0.0,0.0,0.0,0.0,0.0,0.0,0.0,0.0,0.0,0.0,0.0,-16384.0,0.0,0.0,0.0,45.0,0.0,0.0
1731876432995.0,0.0,0.0,-20.0,0.0,0.0,0.0,0.0,0.0,0.0,0.0,0.0,0.0,0.0,0.0,0.0,0.0,0.0,0.0,0.0,0.0,0.0,0.0,0.0,-16384.0,0.0,0.0,0.0,45.0,0.0,0.0
1731876433046.0,0.0,0.0,-20.0,0.0,0.0,0.0,0.0,0.0,0.0,0.0,0.0,0.0,0.0,0.0,0.0,0.0,0.0,0.0,-0.023392127826809883,0.0,0.0,0.0,0.0,-16384.0,-175.67189025878906,0.0,0.0,45.0,0.0,0.0
1731876433062.0,0.0,0.0,-20.0,0.0,0.0,0.0,0.0,0.0,0.0,0.0,0.0,0.0,0.0,0.0,0.0,-0.02680540271103382,0.0,0.0,0.0021382917184382677,0.0,0.0,0.0,7.66513204574585,-16383.998046875,16.058298110961914,0.0,0.0,45.0,0.0,0.0
1731876433079.0,0.0,0.0,-20.0,0.0,0.0,0.0,0.0,0.0,0.0,0.0,0.0,0.0,0.0,0.0,0.0,-0.024355100467801094,0.0,0.0,0.01912875473499298,0.0,0.0,0.0,6.964456558227539,-16383.998046875,143.65451049804688,0.0,0.0,45.0,0.0,0.0
1731876433096.0,0.0,0.0,-20.0,0.0,0.0,0.0,0.0,0.0,0.0,0.0,0.0,0.0,0.0,0.0,0.0,-0.002435162663459778,0.0,0.0,0.07001752406358719,0.0,0.0,0.0,0.6963463425636292,-16384.0,525.8226928710938,0.0,0.0,45.0,0.0,0.0
1731876433112.0,0.0,0.0,-20.0,0.0,0.0,0.0,0.0,0.0,0.0,0.0,0.0,0.0,0.0,0.0,0.0,0.077789306640625,0.0,0.0,0.1122756078839302,0.0,0.0,0.0,-22.24421501159668,-16383.9853515625,843.1754760742188,0.0,0.0,45.0,0.0,0.0
1731876433162.0,0.0,0.0,-20.0,0.0,0.0,0.0,0.0,0.0,0.0,0.0,0.0,0.0,0.0,0.0,0.0,0.373291015625,0.0,0.0,0.16208313405513763,0.0,0.0,0.0,-106.74357604980469,-16383.65234375,1217.2236328125,0.0,0.0,45.0,0.0,0.0
1731876433179.0,0.0,0.0,-20.0,0.0,0.0,0.0,0.0,0.0,0.0,0.0,0.0,0.0,0.0,0.0,0.0,0.55902099609375,0.0,0.0,0.17844504117965698,0.0,0.0,0.0,-159.8521728515625,-16383.2197265625,1340.0994873046875,0.0,0.0,45.0,0.0,0.0
1731876433196.0,0.0,0.0,-20.0,0.0,0.0,0.0,0.0,0.0,0.0,0.0,0.0,0.0,0.0,0.0,0.0,0.763519287109375,0.0,0.0,0.18629330396652222,0.0,0.0,0.0,-218.3255157470703,-16382.5439453125,1399.0389404296875,0.0,0.0,45.0,0.0,0.0
1731876433213.0,0.0,0.0,-20.0,0.0,0.0,0.0,0.0,0.0,0.0,0.0,0.0,0.0,0.0,0.0,0.0,0.97698974609375,0.0,0.0,0.1940164715051651,0.0,0.0,0.0,-279.361328125,-16381.619140625,1457.0389404296875,0.0,0.0,45.0,0.0,0.0
1731876433246.0,0.0,0.0,-20.0,0.0,0.0,0.0,0.0,0.0,0.0,0.0,0.0,0.0,0.0,0.0,0.0,1.199310302734375,0.0,0.0,0.2008877545595169,0.0,0.0,0.0,-342.9234313964844,-16380.4111328125,1508.641357421875,0.0,0.0,45.0,0.0,0.0
1731876433279.0,0.0,0.0,-20.0,0.0,0.0,0.0,0.0,0.0,0.0,0.0,0.0,0.0,0.0,0.0,0.0,1.668212890625,0.0,0.0,0.2156403511762619,0.0,0.0,0.0,-476.9660339355469,-16377.0556640625,1619.4315185546875,0.0,0.0,45.0,0.0,0.0
1731876433296.0,0.0,0.0,-20.0,0.0,0.0,0.0,0.0,0.0,0.0,0.0,0.0,0.0,0.0,0.0,0.0,1.915313720703125,0.0,0.0,0.21459458768367767,0.0,0.0,0.0,-547.591064453125,-16374.8466796875,1611.5780029296875,0.0,0.0,45.0,0.0,0.0
1731876433312.0,0.0,0.0,-20.0,0.0,0.0,0.0,0.0,0.0,0.0,0.0,0.0,0.0,0.0,0.0,0.0,2.161224365234375,0.0,0.0,0.2298283874988556,0.0,0.0,0.0,-617.8658447265625,-16372.345703125,1725.9818115234375,0.0,0.0,45.0,0.0,0.0
1731876433346.0,0.0,0.0,-20.0,0.0,0.0,0.0,0.0,0.0,0.0,0.0,0.0,0.0,0.0,0.0,0.0,2.424591064453125,0.0,0.0,0.22726957499980927,0.0,0.0,0.0,-693.116455078125,-16369.33203125,1706.7655029296875,0.0,0.0,45.0,0.0,0.0
1731876433379.0,0.0,0.0,-20.0,0.0,0.0,0.0,0.0,0.0,0.0,0.0,0.0,0.0,0.0,0.0,0.0,2.953125,0.0,0.0,0.23252709209918976,0.0,0.0,0.0,-844.0863647460938,-16362.2431640625,1746.248779296875,0.0,0.0,45.0,0.0,0.0
1731876433396.0,0.0,0.0,-20.0,0.0,0.0,0.0,0.0,0.0,0.0,0.0,0.0,0.0,0.0,0.0,0.0,3.2196044921875,0.0,0.0,0.23093849420547485,0.0,0.0,0.0,-920.1767578125,-16358.1396484375,1734.318603515625,0.0,0.0,45.0,0.0,0.0
1731876433412.0,0.0,0.0,-20.0,0.0,0.0,0.0,0.0,0.0,0.0,0.0,0.0,0.0,0.0,0.0,0.0,3.484222412109375,0.0,0.0,0.23725943267345428,0.0,0.0,0.0,-995.7160034179688,-16353.71484375,1781.7880859375,0.0,0.0,45.0,0.0,0.0
1731876433430.0,0.0,0.0,-20.0,0.0,0.0,0.0,0.0,0.0,0.0,0.0,0.0,0.0,0.0,0.0,0.0,3.756103515625,0.0,0.0,0.23545916378498077,0.0,0.0,0.0,-1073.3065185546875,-16348.806640625,1768.2681884765625,0.0,0.0,45.0,0.0,0.0
1731876433462.0,0.0,0.0,-20.0,0.0,0.0,0.0,0.0,0.0,0.0,0.0,0.0,0.0,0.0,0.0,0.0,4.025909423828125,0.0,0.0,0.23960261046886444,0.0,0.0,0.0,-1150.2808837890625,-16343.5712890625,1799.385009765625,0.0,0.0,45.0,0.0,0.0
1731876433495.0,0.0,0.0,-20.0,0.0,0.0,0.0,0.0,0.0,0.0,0.0,0.0,0.0,0.0,0.0,0.0,4.57281494140625,0.0,0.0,0.23562636971473694,0.0,0.0,0.0,-1306.2303466796875,-16331.8466796875,1769.52392578125,0.0,0.0,45.0,0.0,0.0
1731876433513.0,0.0,0.0,-20.0,0.0,0.0,0.0,0.0,0.0,0.0,0.0,0.0,0.0,0.0,0.0,0.0,4.84283447265625,0.0,0.0,0.23343925178050995,0.0,0.0,0.0,-1383.1832275390625,-16325.5087890625,1753.0989990234375,0.0,0.0,45.0,0.0,0.0
1731876433529.0,0.0,0.0,-20.0,0.0,0.0,0.0,0.0,0.0,0.0,0.0,0.0,0.0,0.0,0.0,0.0,5.1103515625,0.0,0.0,0.23126190900802612,0.0,0.0,0.0,-1459.392578125,-16318.8740234375,1736.7474365234375,0.0,0.0,45.0,0.0,0.0
1731876433563.0,0.0,0.0,-20.0,0.0,0.0,0.0,0.0,0.0,0.0,0.0,0.0,0.0,0.0,0.0,0.0,5.375335693359375,0.0,0.0,0.22678892314434052,0.0,0.0,0.0,-1534.848876953125,-16311.9501953125,1703.1558837890625,0.0,0.0,45.0,0.0,0.0
1731876433580.0,0.0,0.0,-20.0,0.0,0.0,0.0,0.0,0.0,0.0,0.0,0.0,0.0,0.0,0.0,0.0,5.635223388671875,0.0,0.0,0.22440266609191895,0.0,0.0,0.0,-1608.822265625,-16304.8193359375,1685.2353515625,0.0,0.0,45.0,0.0,0.0
1731876433613.0,0.0,0.0,-20.0,0.0,0.0,0.0,0.0,0.0,0.0,0.0,0.0,0.0,0.0,0.0,0.0,6.146759033203125,0.0,0.0,0.21953025460243225,0.0,0.0,0.0,-1754.3253173828125,-16289.8076171875,1648.6441650390625,0.0,0.0,45.0,0.0,0.0
1731876433613.0,0.0,0.0,-20.0,0.0,0.0,0.0,0.0,0.0,0.0,0.0,0.0,0.0,0.0,0.0,0.0,6.146759033203125,0.0,0.0,0.21953025460243225,0.0,0.0,0.0,-1754.3253173828125,-16289.8076171875,1648.6441650390625,0.0,0.0,45.0,0.0,0.0
1731876433663.0,0.0,0.0,-20.0,0.0,0.0,0.0,0.0,0.0,0.0,0.0,0.0,0.0,0.0,0.0,0.0,6.64697265625,0.0,0.0,0.21173033118247986,0.0,0.0,0.0,-1896.4727783203125,-16273.8701171875,1590.0677490234375,0.0,0.0,45.0,0.0,0.0
1731876433679.0,0.0,0.0,-20.0,0.0,0.0,0.0,0.0,0.0,0.0,0.0,0.0,0.0,0.0,0.0,0.0,6.88958740234375,0.0,0.0,0.2090349644422531,0.0,0.0,0.0,-1965.3658447265625,-16265.6923828125,1569.825927734375,0.0,0.0,45.0,0.0,0.0
1731876433712.0,0.0,0.0,-20.0,0.0,0.0,0.0,0.0,0.0,0.0,0.0,0.0,0.0,0.0,0.0,0.0,7.365447998046875,0.0,0.0,0.2034943699836731,0.0,0.0,0.0,-2100.388671875,-16248.8095703125,1528.2166748046875,0.0,0.0,45.0,0.0,0.0
1731876433712.0,0.0,0.0,-20.0,0.0,0.0,0.0,0.0,0.0,0.0,0.0,0.0,0.0,0.0,0.0,0.0,7.365447998046875,0.0,0.0,0.2034943699836731,0.0,0.0,0.0,-2100.388671875,-16248.8095703125,1528.2166748046875,0.0,0.0,45.0,0.0,0.0
1731876433763.0,0.0,0.0,-20.0,0.0,0.0,0.0,0.0,0.0,0.0,0.0,0.0,0.0,0.0,0.0,0.0,7.8284912109375,0.0,0.0,0.19453836977481842,0.0,0.0,0.0,-2231.635498046875,-16231.3046875,1460.958251953125,0.0,0.0,45.0,0.0,0.0
1731876433780.0,0.0,0.0,-20.0,0.0,0.0,0.0,0.0,0.0,0.0,0.0,0.0,0.0,0.0,0.0,0.0,8.0513916015625,0.0,0.0,0.1914745271205902,0.0,0.0,0.0,-2294.763916015625,-16222.5,1437.94921875,0.0,0.0,45.0,0.0,0.0
1731876433812.0,0.0,0.0,-20.0,0.0,0.0,0.0,0.0,0.0,0.0,0.0,0.0,0.0,0.0,0.0,0.0,8.486724853515625,0.0,0.0,0.18533864617347717,0.0,0.0,0.0,-2417.955078125,-16204.595703125,1391.8695068359375,0.0,0.0,45.0,0.0,0.0
1731876433812.0,0.0,0.0,-20.0,0.0,0.0,0.0,0.0,0.0,0.0,0.0,0.0,0.0,0.0,0.0,0.0,8.486724853515625,0.0,0.0,0.18533864617347717,0.0,0.0,0.0,-2417.955078125,-16204.595703125,1391.8695068359375,0.0,0.0,45.0,0.0,0.0
1731876433829.0,0.0,0.0,-20.0,0.0,0.0,0.0,0.0,0.0,0.0,0.0,0.0,0.0,0.0,0.0,0.0,8.6990966796875,0.0,0.0,0.18214288353919983,0.0,0.0,0.0,-2478.001953125,-16195.5224609375,1367.8697509765625,0.0,0.0,45.0,0.0,0.0
1731876433880.0,0.0,0.0,-20.0,0.0,0.0,0.0,0.0,0.0,0.0,0.0,0.0,0.0,0.0,0.0,0.0,9.10888671875,0.0,0.0,0.17207226157188416,0.0,0.0,0.0,-2593.77099609375,-16177.3857421875,1292.24072265625,0.0,0.0,45.0,0.0,0.0
1731876433896.0,0.0,0.0,-20.0,0.0,0.0,0.0,0.0,0.0,0.0,0.0,0.0,0.0,0.0,0.0,0.0,9.30609130859375,0.0,0.0,0.16876648366451263,0.0,0.0,0.0,-2649.43603515625,-16168.3623046875,1267.414794921875,0.0,0.0,45.0,0.0,0.0
1731876433913.0,0.0,0.0,-20.0,0.0,0.0,0.0,0.0,0.0,0.0,0.0,0.0,0.0,0.0,0.0,0.0,9.499481201171875,0.0,0.0,0.1652638167142868,0.0,0.0,0.0,-2703.993896484375,-16159.328125,1241.110107421875,0.0,0.0,45.0,0.0,0.0
1731876433930.0,0.0,0.0,-20.0,0.0,0.0,0.0,0.0,0.0,0.0,0.0,0.0,0.0,0.0,0.0,0.0,9.6888427734375,0.0,0.0,0.16172681748867035,0.0,0.0,0.0,-2757.385009765625,-16150.3037109375,1214.5477294921875,0.0,0.0,45.0,0.0,0.0
1731876433962.0,0.0,0.0,-20.0,0.0,0.0,0.0,0.0,0.0,0.0,0.0,0.0,0.0,0.0,0.0,0.0,9.874176025390625,0.0,0.0,0.1547144502401352,0.0,0.0,0.0,-2809.61181640625,-16141.2978515625,1161.8857421875,0.0,0.0,45.0,0.0,0.0
1731876433996.0,0.0,0.0,-20.0,0.0,0.0,0.0,0.0,0.0,0.0,0.0,0.0,0.0,0.0,0.0,0.0,10.224609375,0.0,0.0,0.14726541936397552,0.0,0.0,0.0,-2908.2822265625,-16123.8125,1105.9444580078125,0.0,0.0,45.0,0.0,0.0
1731876434012.0,0.0,0.0,-20.0,0.0,0.0,0.0,0.0,0.0,0.0,0.0,0.0,0.0,0.0,0.0,0.0,10.39337158203125,0.0,0.0,0.1437021791934967,0.0,0.0,0.0,-2955.761474609375,-16115.1767578125,1079.18505859375,0.0,0.0,45.0,0.0,0.0
1731876434029.0,0.0,0.0,-20.0,0.0,0.0,0.0,0.0,0.0,0.0,0.0,0.0,0.0,0.0,0.0,0.0,10.55804443359375,0.0,0.0,0.13996407389640808,0.0,0.0,0.0,-3002.0654296875,-16106.615234375,1051.1123046875,0.0,0.0,45.0,0.0,0.0
1731876434062.0,0.0,0.0,-20.0,0.0,0.0,0.0,0.0,0.0,0.0,0.0,0.0,0.0,0.0,0.0,0.0,10.718414306640625,0.0,0.0,0.13230271637439728,0.0,0.0,0.0,-3047.135986328125,-16098.150390625,993.5764770507812,0.0,0.0,45.0,0.0,0.0
1731876434080.0,0.0,0.0,-20.0,0.0,0.0,0.0,0.0,0.0,0.0,0.0,0.0,0.0,0.0,0.0,0.0,10.870025634765625,0.0,0.0,0.12826639413833618,0.0,0.0,0.0,-3089.72265625,-16090.0302734375,963.2642211914062,0.0,0.0,45.0,0.0,0.0
1731876434113.0,0.0,0.0,-20.0,0.0,0.0,0.0,0.0,0.0,0.0,0.0,0.0,0.0,0.0,0.0,0.0,11.15972900390625,-0.03589165583252907,-0.00701904296875,0.12049872428178787,-0.031903866678476334,6.693881005048752e-10,-10.263388633728027,-3171.0380859375,-16074.2001953125,904.9300537109375,-239.59396362304688,5.027019142289646e-06,44.99999237060547,-4.7376088332384825e-05,-0.028723184019327164
1731876434113.0,0.0,0.0,-20.0,0.0,0.0,0.0,0.0,0.0,0.0,0.0,0.0,0.0,0.0,0.0,0.0,11.15972900390625,-0.03589165583252907,-0.00701904296875,0.12049872428178787,-0.031903866678476334,6.693881005048752e-10,-10.263388633728027,-3171.0380859375,-16074.2001953125,904.9300537109375,-239.59396362304688,5.027019142289646e-06,44.99999237060547,-4.7376088332384825e-05,-0.028723184019327164
1731876434130.0,0.0,0.0,-20.0,0.0,0.0,0.0,0.0,0.0,0.0,0.0,0.0,0.0,0.0,0.0,0.0,11.297821044921875,-0.0717509463429451,-0.01416015625,0.11649937182664871,-0.023376649245619774,2.9103830456733704e-10,-20.517518997192383,-3209.76806640625,-16066.5,874.8953857421875,-175.55564880371094,2.185660605391604e-06,44.999961853027344,-0.0001342080213362351,-0.057439811527729034
1731876434180.0,0.0,0.0,-20.0,0.0,0.0,0.0,0.0,0.0,0.0,0.0,0.0,0.0,0.0,0.0,0.0,11.55560302734375,-0.10514730960130692,-0.0208740234375,0.10439862310886383,0.01060262881219387,-1.0186340659856796e-10,-30.067354202270508,-3282.01806640625,-16051.8837890625,784.0203247070312,79.6243896484375,-7.649811664123263e-07,44.99992370605469,-0.0004807008372154087,-0.0841926783323288
1731876434197.0,0.0,0.0,-20.0,0.0,0.0,0.0,0.0,0.0,0.0,0.0,0.0,0.0,0.0,0.0,0.0,11.67523193359375,-0.09324640780687332,-0.0184326171875,0.10024537891149521,0.03595571964979172,6.257323548197746e-10,-26.664243698120117,-3315.527099609375,-16045.0,752.8300170898438,270.0228576660156,4.6991699491627514e-06,44.99993896484375,-0.0006428094347938895,-0.07464992254972458
1731876434213.0,0.0,0.0,-20.0,0.0,0.0,0.0,0.0,0.0,0.0,0.0,0.0,0.0,0.0,0.0,0.0,11.790069580078125,-0.052905019372701645,-0.01007080078125,0.09613922238349915,0.06120048090815544,-4.3655745685100555e-10,-15.128439903259277,-3347.681884765625,-16038.3369140625,721.9932861328125,459.6077880859375,-3.278490794400568e-06,44.99998092651367,-0.0007473501609638333,-0.04229102283716202
1731876434230.0,0.0,0.0,-20.0,0.0,0.0,0.0,0.0,0.0,0.0,0.0,0.0,0.0,0.0,0.0,0.0,11.900238037109375,0.0157470703125,0.004337816499173641,0.09200654178857803,0.08631551265716553,-1.0804797057062387e-09,4.5029497146606445,-3378.515380859375,-16031.875,690.9573974609375,648.2184448242188,-8.114264346659184e-06,44.999996185302734,-0.0007833664421923459,0.012804447673261166
1731876434263.0,0.0,0.0,-20.0,0.0,0.0,0.0,0.0,0.0,0.0,0.0,0.0,0.0,0.0,0.0,0.0,12.005706787109375,0.11248779296875,0.024823009967803955,0.08358920365571976,0.11932079493999481,1.1641532182693481e-10,32.16640090942383,-3408.01513671875,-16025.6015625,627.7442626953125,896.0839233398438,8.742641739445389e-07,44.999908447265625,-0.0006923936307430267,0.09047054499387741
1731876434297.0,0.0,0.0,-20.0,0.0,0.0,0.0,0.0,0.0,0.0,0.0,0.0,0.0,0.0,0.0,0.0,12.192840576171875,0.388824462890625,0.08407095074653625,0.07507801800966263,0.12682807445526123,2.5029294192790985e-09,111.18534088134766,-3460.264892578125,-16014.0458984375,563.8263549804688,952.462646484375,1.8796679796651006e-05,44.99891662597656,-4.2747706174850464e-05,0.31243619322776794
1731876434313.0,0.0,0.0,-20.0,0.0,0.0,0.0,0.0,0.0,0.0,0.0,0.0,0.0,0.0,0.0,0.0,12.27911376953125,0.530853271484375,0.11487384140491486,0.07106417417526245,0.142946258187294,-1.280568540096283e-09,151.7978515625,-3484.304443359375,-16008.498046875,533.682861328125,1073.5081787109375,-9.616906027076766e-06,44.99797821044922,0.0005114113446325064,0.4265742897987366
1731876434330.0,0.0,0.0,-20.0,0.0,0.0,0.0,0.0,0.0,0.0,0.0,0.0,0.0,0.0,0.0,0.0,12.360931396484375,0.690887451171875,0.1498270332813263,0.06656117737293243,0.14233116805553436,6.402842700481415e-10,197.55775451660156,-3507.056640625,-16003.0302734375,499.8659362792969,1068.888916015625,4.808453013538383e-06,44.99657440185547,0.001209561014547944,0.5552186369895935
1731876434363.0,0.0,0.0,-20.0,0.0,0.0,0.0,0.0,0.0,0.0,0.0,0.0,0.0,0.0,0.0,0.0,12.43768310546875,0.850189208984375,0.1848514825105667,0.05795511603355408,0.16557036340236664,0.0,243.10671997070312,-3528.358642578125,-15997.7197265625,435.2355041503906,1243.4122314453125,0.0,44.99481201171875,0.002035136567428708,0.683307409286499
1731876434380.0,0.0,0.0,-20.0,0.0,0.0,0.0,0.0,0.0,0.0,0.0,0.0,0.0,0.0,0.0,0.0,12.5047607421875,1.035430908203125,0.22582891583442688,0.053555842489004135,0.1728656142950058,-2.7939677238464355e-09,296.0702819824219,-3546.896240234375,-15992.7265625,402.1975402832031,1298.19873046875,-2.0982341084163636e-05,44.99230194091797,0.002911548363044858,0.8322881460189819
1731876434413.0,0.0,0.0,-20.0,0.0,0.0,0.0,0.0,0.0,0.0,0.0,0.0,0.0,0.0,0.0,0.0,12.62457275390625,1.43017578125,0.31384366750717163,0.044824715703725815,0.1790284514427185,2.7939677238464355e-09,408.923095703125,-3579.80078125,-15982.90625,336.6278991699219,1344.4808349609375,2.0982341084163636e-05,44.98530578613281,0.004940356593579054,1.1498438119888306
1731876434413.0,0.0,0.0,-20.0,0.0,0.0,0.0,0.0,0.0,0.0,0.0,0.0,0.0,0.0,0.0,0.0,12.62457275390625,1.43017578125,0.31384366750717163,0.044824715703725815,0.1790284514427185,2.7939677238464355e-09,408.923095703125,-3579.80078125,-15982.90625,336.6278991699219,1344.4808349609375,2.0982341084163636e-05,44.98530578613281,0.004940356593579054,1.1498438119888306
1731876434463.0,0.0,0.0,-20.0,0.0,0.0,0.0,0.0,0.0,0.0,0.0,0.0,0.0,0.0,0.0,0.0,12.724945068359375,1.8382568359375,0.40566709637641907,0.031790610402822495,0.19943207502365112,1.6298145055770874e-09,525.568115234375,-3607.061767578125,-15973.36328125,238.74342346191406,1497.7093505859375,1.223969866259722e-05,44.975711822509766,0.0071744900196790695,1.478205919265747
1731876434480.0,0.0,0.0,-20.0,0.0,0.0,0.0,0.0,0.0,0.0,0.0,0.0,0.0,0.0,0.0,0.0,12.763092041015625,2.0611572265625,0.4561094045639038,0.027238523587584496,0.1980189085006714,-6.6356733441352844e-09,589.2705688476562,-3617.21630859375,-15968.84375,204.55783081054688,1487.0966796875,-4.9833059165393934e-05,44.969459533691406,0.008171056397259235,1.6575791835784912
1731876434514.0,0.0,0.0,-20.0,0.0,0.0,0.0,0.0,0.0,0.0,0.0,0.0,0.0,0.0,0.0,0.0,12.82452392578125,2.51080322265625,0.5583117008209229,0.018386973068118095,0.21056443452835083,4.831235855817795e-09,717.746337890625,-3633.19775390625,-15959.9560546875,138.0838165283203,1581.31201171875,3.628196282079443e-05,44.95466613769531,0.009999778121709824,2.019411087036133
1731876434514.0,0.0,0.0,-20.0,0.0,0.0,0.0,0.0,0.0,0.0,0.0,0.0,0.0,0.0,0.0,0.0,12.82452392578125,2.51080322265625,0.5583117008209229,0.018386973068118095,0.21056443452835083,4.831235855817795e-09,717.746337890625,-3633.19775390625,-15959.9560546875,138.0838165283203,1581.31201171875,3.628196282079443e-05,44.95466613769531,0.009999778121709824,2.019411087036133
1731876434564.0,0.0,0.0,-20.0,0.0,0.0,0.0,0.0,0.0,0.0,0.0,0.0,0.0,0.0,0.0,0.0,12.86676025390625,2.988006591796875,0.667264461517334,0.005066186189651489,0.22049003839492798,-2.939486876130104e-09,854.0474853515625,-3643.503662109375,-15950.8916015625,38.046409606933594,1655.85205078125,-2.207517172791995e-05,44.93577575683594,0.01142063643783331,2.403355836868286
1731876434580.0,0.0,0.0,-20.0,0.0,0.0,0.0,0.0,0.0,0.0,0.0,0.0,0.0,0.0,0.0,0.0,12.8756103515625,3.23431396484375,0.7236306667327881,0.0007784555200487375,0.22606754302978516,-2.622982719913125e-09,924.3762817382812,-3645.115966796875,-15946.6015625,5.846101760864258,1697.7384033203125,-1.9698265532497317e-05,44.92473602294922,0.011672386899590492,2.6014833450317383
1731876434597.0,0.0,0.0,-20.0,0.0,0.0,0.0,0.0,0.0,0.0,0.0,0.0,0.0,0.0,0.0,0.0,12.879913330078125,3.486846923828125,0.7814660668373108,-0.0036718870978802443,0.22397062182426453,5.165929906070232e-09,996.4651489257812,-3645.3701171875,-15942.201171875,-27.575403213500977,1681.99072265625,3.879547512042336e-05,44.91252136230469,0.011714380234479904,2.804572105407715
1731876434613.0,0.0,0.0,-20.0,0.0,0.0,0.0,0.0,0.0,0.0,0.0,0.0,0.0,0.0,0.0,0.0,12.879302978515625,3.737060546875,0.8387882709503174,-0.008104967884719372,0.22181905806064606,-4.656612873077393e-10,1067.8726806640625,-3644.1953125,-15937.8447265625,-60.86727523803711,1665.832763671875,-3.4970566957781557e-06,44.89950180053711,0.011503659188747406,3.0057404041290283
1731876434630.0,0.0,0.0,-20.0,0.0,0.0,0.0,0.0,0.0,0.0,0.0,0.0,0.0,0.0,0.0,0.0,12.87384033203125,3.984832763671875,0.8955628871917725,-0.012470901012420654,0.21963880956172943,2.5029294192790985e-09,1138.5634765625,-3641.61279296875,-15933.544921875,-93.65487670898438,1649.4593505859375,1.8796679796651006e-05,44.8857307434082,0.010996554046869278,3.2048873901367188
1731876434680.0,0.0,0.0,-20.0,0.0,0.0,0.0,0.0,0.0,0.0,0.0,0.0,0.0,0.0,0.0,0.0,12.843231201171875,4.47039794921875,1.0067249536514282,-0.025737827643752098,0.2126387506723404,9.313225746154785e-10,1277.034912109375,-3630.824951171875,-15925.505859375,-193.2877960205078,1596.889892578125,6.994113391556311e-06,44.856170654296875,0.008678371086716652,3.594949245452881
1731876434696.0,0.0,0.0,-20.0,0.0,0.0,0.0,0.0,0.0,0.0,0.0,0.0,0.0,0.0,0.0,0.0,12.81805419921875,4.707977294921875,1.0610097646713257,-0.03016361966729164,0.21017739176750183,-2.7939677238464355e-09,1344.7540283203125,-3622.62109375,-15921.7998046875,-226.52493286132812,1578.4053955078125,-2.0982341084163636e-05,44.840476989746094,0.006776768714189529,3.7856814861297607
1731876434713.0,0.0,0.0,-20.0,0.0,0.0,0.0,0.0,0.0,0.0,0.0,0.0,0.0,0.0,0.0,0.0,12.787994384765625,4.942840576171875,1.1145710945129395,-0.03459707647562027,0.2076478898525238,-2.0954757928848267e-09,1411.6761474609375,-3613.0166015625,-15918.1884765625,-259.8196105957031,1559.4091796875,-1.5736755813122727e-05,44.82416915893555,0.004436792805790901,3.974144220352173
1731876434730.0,0.0,0.0,-20.0,0.0,0.0,0.0,0.0,0.0,0.0,0.0,0.0,0.0,0.0,0.0,0.0,12.753021240234375,5.174896240234375,1.1673742532730103,-0.03897259011864662,0.20508845150470734,-4.889443516731262e-09,1477.7750244140625,-3602.007568359375,-15914.6826171875,-292.6791687011719,1540.1881103515625,-3.671909507829696e-05,44.80727767944336,0.0016226526349782944,4.160260200500488
1731876434763.0,0.0,0.0,-20.0,0.0,0.0,0.0,0.0,0.0,0.0,0.0,0.0,0.0,0.0,0.0,0.0,12.713165283203125,5.404144287109375,1.2193950414657593,-0.04772214591503143,0.1997808814048767,0.0,1543.050537109375,-3589.606201171875,-15911.2900390625,-358.38720703125,1500.328857421875,0.0,44.78983688354492,-0.0016886182129383087,4.344025135040283
1731876434796.0,0.0,0.0,-20.0,0.0,0.0,0.0,0.0,0.0,0.0,0.0,0.0,0.0,0.0,0.0,0.0,12.60870361328125,5.847869873046875,1.319568395614624,-0.05640283226966858,0.19426178932189941,0.0,1669.3243408203125,-3557.875732421875,-15905.669921875,-423.57806396484375,1458.8812255859375,0.0,44.753944396972656,-0.010716095566749573,4.699392318725586
1731876434813.0,0.0,0.0,-20.0,0.0,0.0,0.0,0.0,0.0,0.0,0.0,0.0,0.0,0.0,0.0,0.0,12.54913330078125,6.06512451171875,1.368312120437622,-0.060775723308324814,0.1913844496011734,5.122274160385132e-09,1731.1138916015625,-3539.93603515625,-15903.068359375,-456.41790771484375,1437.2728271484375,3.8467624108307064e-05,44.7353515625,-0.016116807237267494,4.873212814331055
1731876434813.0,0.0,0.0,-20.0,0.0,0.0,0.0,0.0,0.0,0.0,0.0,0.0,0.0,0.0,0.0,0.0,12.54913330078125,6.06512451171875,1.368312120437622,-0.060775723308324814,0.1913844496011734,5.122274160385132e-09,1731.1138916015625,-3539.93603515625,-15903.068359375,-456.41790771484375,1437.2728271484375,3.8467624108307064e-05,44.7353515625,-0.016116807237267494,4.873212814331055
1731876434864.0,0.0,0.0,-20.0,0.0,0.0,0.0,0.0,0.0,0.0,0.0,0.0,0.0,0.0,0.0,0.0,12.415191650390625,6.490081787109375,1.4629663228988647,-0.07380157709121704,0.18241876363754272,-1.862645149230957e-09,1851.9034423828125,-3499.892333984375,-15898.322265625,-554.2404174804688,1369.941650390625,-1.3988226783112623e-05,44.69704055786133,-0.028828466311097145,5.212845802307129
1731876434880.0,0.0,0.0,-20.0,0.0,0.0,0.0,0.0,0.0,0.0,0.0,0.0,0.0,0.0,0.0,0.0,12.3358154296875,6.69427490234375,1.508064866065979,-0.07797379046678543,0.17941929399967194,-4.6566128730773926e-09,1909.907470703125,-3476.431640625,-15896.6064453125,-585.5731811523438,1347.416015625,-3.497056968626566e-05,44.6777229309082,-0.03663905709981918,5.375844478607178
1731876434914.0,0.0,0.0,-20.0,0.0,0.0,0.0,0.0,0.0,0.0,0.0,0.0,0.0,0.0,0.0,0.0,12.162689208984375,7.092620849609375,1.5951902866363525,-0.08642349392175674,0.17314916849136353,9.313225746154785e-10,2022.99267578125,-3425.501953125,-15893.6748046875,-649.0294189453125,1300.328125,6.994113391556311e-06,44.63834762573242,-0.05438204109668732,5.693418502807617
1731876434914.0,0.0,0.0,-20.0,0.0,0.0,0.0,0.0,0.0,0.0,0.0,0.0,0.0,0.0,0.0,0.0,12.162689208984375,7.092620849609375,1.5951902866363525,-0.08642349392175674,0.17314916849136353,9.313225746154785e-10,2022.99267578125,-3425.501953125,-15893.6748046875,-649.0294189453125,1300.328125,6.994113391556311e-06,44.63834762573242,-0.05438204109668732,5.693418502807617
1731876434930.0,0.0,0.0,-20.0,0.0,0.0,0.0,0.0,0.0,0.0,0.0,0.0,0.0,0.0,0.0,0.0,12.06890869140625,7.28662109375,1.6371651887893677,-0.09057462960481644,0.1699708253145218,9.313225746154785e-10,2078.031982421875,-3398.031494140625,-15892.4716796875,-680.2039184570312,1276.459228515625,6.994113391556311e-06,44.61836242675781,-0.06435550004243851,5.847867488861084
1731876434980.0,0.0,0.0,-20.0,0.0,0.0,0.0,0.0,0.0,0.0,0.0,0.0,0.0,0.0,0.0,0.0,11.8621826171875,7.660308837890625,1.7170647382736206,-0.10306956619024277,0.16000021994113922,3.725290298461914e-09,2183.981689453125,-3337.8115234375,-15891.0244140625,-774.039306640625,1201.5811767578125,2.7976453566225246e-05,44.57838439941406,-0.08709819614887238,6.1449198722839355
1731876434997.0,0.0,0.0,-20.0,0.0,0.0,0.0,0.0,0.0,0.0,0.0,0.0,0.0,0.0,0.0,0.0,11.749176025390625,7.83978271484375,1.7549219131469727,-0.10709857940673828,0.15665161609649658,4.6566128730773926e-09,2234.834228515625,-3305.053466796875,-15890.80078125,-804.296630859375,1176.43359375,3.497056968626566e-05,44.558494567871094,-0.09991136193275452,6.287351608276367
1731876435013.0,0.0,0.0,-20.0,0.0,0.0,0.0,0.0,0.0,0.0,0.0,0.0,0.0,0.0,0.0,0.0,11.631500244140625,8.01556396484375,1.7916455268859863,-0.11109855026006699,0.1532604694366455,-1.862645149230957e-09,2284.619384765625,-3271.01123046875,-15890.765625,-834.3359375,1150.966552734375,-1.3988226783112623e-05,44.53857421875,-0.11353044956922531,6.426691055297852
1731876435030.0,0.0,0.0,-20.0,0.0,0.0,0.0,0.0,0.0,0.0,0.0,0.0,0.0,0.0,0.0,0.0,11.50921630859375,8.1876220703125,1.827225685119629,-0.11517079919576645,0.14973819255828857,3.725290298461914e-09,2333.3291015625,-3235.70556640625,-15890.9169921875,-864.91796875,1124.5146484375,2.7976453566225246e-05,44.5186653137207,-0.12796014547348022,6.562914848327637
1731876435064.0,0.0,0.0,-20.0,0.0,0.0,0.0,0.0,0.0,0.0,0.0,0.0,0.0,0.0,0.0,0.0,11.3822021484375,8.355804443359375,1.8616331815719604,-0.12310025840997696,0.14267092943191528,-3.725290298461914e-09,2380.921142578125,-3199.10498046875,-15891.267578125,-924.4672241210938,1071.4404296875,-2.7976453566225246e-05,44.49881362915039,-0.14322786033153534,6.695901393890381
1731876435097.0,0.0,0.0,-20.0,0.0,0.0,0.0,0.0,0.0,0.0,0.0,0.0,0.0,0.0,0.0,0.0,11.105010986328125,8.6724853515625,1.9253005981445312,-0.13090717792510986,0.13543188571929932,-1.862645149230957e-09,2470.479736328125,-3119.605224609375,-15893.40234375,-983.09619140625,1017.076171875,-1.3988226783112623e-05,44.46037292480469,-0.1773567944765091,6.945758819580078
1731876435114.0,0.0,0.0,-20.0,0.0,0.0,0.0,0.0,0.0,0.0,0.0,0.0,0.0,0.0,0.0,0.0,10.9595947265625,8.824798583984375,1.955348253250122,-0.13473542034626007,0.13177552819252014,3.725290298461914e-09,2513.527587890625,-3077.99853515625,-15894.765625,-1011.8458251953125,989.6173706054688,2.7976453566225246e-05,44.441402435302734,-0.1956978291273117,7.065662860870361
1731876435130.0,0.0,0.0,-20.0,0.0,0.0,0.0,0.0,0.0,0.0,0.0,0.0,0.0,0.0,0.0,0.0,10.809661865234375,8.97308349609375,1.9842101335525513,-0.1385265737771988,0.12808284163475037,-5.587935447692871e-09,2555.419921875,-3035.1640625,-15896.3212890625,-1040.31689453125,961.8858032226562,-4.196468216832727e-05,44.42262649536133,-0.21489514410495758,7.18220853805542
1731876435164.0,0.0,0.0,-20.0,0.0,0.0,0.0,0.0,0.0,0.0,0.0,0.0,0.0,0.0,0.0,0.0,10.6552734375,9.117279052734375,2.0118865966796875,-0.14606116712093353,0.1205231100320816,-1.862645149230957e-09,2596.140625,-2991.120361328125,-15898.0732421875,-1096.9007568359375,905.1131591796875,-1.3988226783112623e-05,44.40408706665039,-0.23495186865329742,7.295350551605225
1731876435198.0,0.0,0.0,-20.0,0.0,0.0,0.0,0.0,0.0,0.0,0.0,0.0,0.0,0.0,0.0,0.0,10.324371337890625,9.384613037109375,2.062047004699707,-0.15353794395923615,0.11271499842405319,-9.313225746154785e-09,2671.591552734375,-2897.05224609375,-15902.9921875,-1153.05029296875,846.4752197265625,-6.994113937253132e-05,44.36896896362305,-0.2787376642227173,7.504454612731934
1731876435214.0,0.0,0.0,-20.0,0.0,0.0,0.0,0.0,0.0,0.0,0.0,0.0,0.0,0.0,0.0,0.0,10.152252197265625,9.51171875,2.085320234298706,-0.15699398517608643,0.10899661481380463,1.862645149230957e-09,2707.445068359375,-2848.2138671875,-15905.7490234375,-1179.0047607421875,818.5506591796875,1.3988226783112623e-05,44.3519401550293,-0.3019339144229889,7.603565692901611
1731876435214.0,0.0,0.0,-20.0,0.0,0.0,0.0,0.0,0.0,0.0,0.0,0.0,0.0,0.0,0.0,0.0,10.152252197265625,9.51171875,2.085320234298706,-0.15699398517608643,0.10899661481380463,1.862645149230957e-09,2707.445068359375,-2848.2138671875,-15905.7490234375,-1179.0047607421875,818.5506591796875,1.3988226783112623e-05,44.3519401550293,-0.3019339144229889,7.603565692901611
1731876435264.0,0.0,0.0,-20.0,0.0,0.0,0.0,0.0,0.0,0.0,0.0,0.0,0.0,0.0,0.0,0.0,9.7955322265625,9.753265380859375,2.128418445587158,-0.16755981743335724,0.0971686989068985,-3.725290298461914e-09,2775.54248046875,-2747.164794921875,-15911.7861328125,-1258.352783203125,729.7244873046875,-2.7976453566225246e-05,44.31898880004883,-0.35083654522895813,7.791272163391113
1731876435281.0,0.0,0.0,-20.0,0.0,0.0,0.0,0.0,0.0,0.0,0.0,0.0,0.0,0.0,0.0,0.0,9.60675048828125,9.863037109375,2.1474597454071045,-0.17100614309310913,0.09315081685781479,5.587935447692871e-09,2806.4736328125,-2693.830322265625,-15915.4775390625,-1284.2342529296875,699.5507202148438,4.196468216832727e-05,44.30376434326172,-0.3770887553691864,7.876179218292236
1731876435314.0,0.0,0.0,-20.0,0.0,0.0,0.0,0.0,0.0,0.0,0.0,0.0,0.0,0.0,0.0,0.0,9.216949462890625,10.069061279296875,2.182147979736328,-0.1776808202266693,0.08512652665376663,-3.725290298461914e-09,2864.498046875,-2583.85791015625,-15923.37109375,-1334.3602294921875,639.2893676757812,-2.7976453566225246e-05,44.2747688293457,-0.43205684423446655,8.034814834594727
1731876435314.0,0.0,0.0,-20.0,0.0,0.0,0.0,0.0,0.0,0.0,0.0,0.0,0.0,0.0,0.0,0.0,9.216949462890625,10.069061279296875,2.182147979736328,-0.1776808202266693,0.08512652665376663,-3.725290298461914e-09,2864.498046875,-2583.85791015625,-15923.37109375,-1334.3602294921875,639.2893676757812,-2.7976453566225246e-05,44.2747688293457,-0.43205684423446655,8.034814834594727
1731876435364.0,0.0,0.0,-20.0,0.0,0.0,0.0,0.0,0.0,0.0,0.0,0.0,0.0,0.0,0.0,0.0,8.811248779296875,10.257080078125,2.2124595642089844,-0.18741559982299805,0.07279627025127411,0.0,2917.41943359375,-2469.59033203125,-15931.892578125,-1407.4671630859375,546.690673828125,0.0,44.24782943725586,-0.49022307991981506,8.178571701049805
1731876435381.0,0.0,0.0,-20.0,0.0,0.0,0.0,0.0,0.0,0.0,0.0,0.0,0.0,0.0,0.0,0.0,8.598785400390625,10.33953857421875,2.2252914905548096,-0.190548837184906,0.06865382939577103,-3.725290298461914e-09,2940.619140625,-2409.864990234375,-15936.7744140625,-1430.9974365234375,515.5814819335938,-2.7976453566225246e-05,44.235877990722656,-0.520995020866394,8.241090774536133
1731876435398.0,0.0,0.0,-20.0,0.0,0.0,0.0,0.0,0.0,0.0,0.0,0.0,0.0,0.0,0.0,0.0,8.382568359375,10.417327880859375,2.237100124359131,-0.19366218149662018,0.06444652378559113,3.725290298461914e-09,2962.4990234375,-2349.123046875,-15941.7900390625,-1454.3782958984375,483.98516845703125,2.7976453566225246e-05,44.224525451660156,-0.5525146126747131,8.299760818481445
1731876435414.0,0.0,0.0,-20.0,0.0,0.0,0.0,0.0,0.0,0.0,0.0,0.0,0.0,0.0,0.0,0.0,8.16259765625,10.49041748046875,2.2479052543640137,-0.19658885896205902,0.0604042187333107,0.0,2983.052490234375,-2287.363525390625,-15946.9384765625,-1476.357177734375,453.6279602050781,0.0,44.21379089355469,-0.584768533706665,8.354558944702148
1731876435431.0,0.0,0.0,-20.0,0.0,0.0,0.0,0.0,0.0,0.0,0.0,0.0,0.0,0.0,0.0,0.0,7.93914794921875,10.5589599609375,2.257765293121338,-0.19953934848308563,0.05623871460556984,0.0,3002.322998046875,-2224.659912109375,-15952.19140625,-1498.5150146484375,422.3455505371094,0.0,44.20366668701172,-0.6177127957344055,8.405610084533691
1731876435481.0,0.0,0.0,-20.0,0.0,0.0,0.0,0.0,0.0,0.0,0.0,0.0,0.0,0.0,0.0,0.0,7.478118896484375,10.676971435546875,2.2740447521209717,-0.2081589549779892,0.04349885508418083,0.0,3035.490966796875,-2095.4208984375,-15963.41015625,-1563.2471923828125,326.67083740234375,0.0,44.18610382080078,-0.6861600875854492,8.49219036102295
1731876435497.0,0.0,0.0,-20.0,0.0,0.0,0.0,0.0,0.0,0.0,0.0,0.0,0.0,0.0,0.0,0.0,7.240814208984375,10.726409912109375,2.2805426120758057,-0.2108331024646759,0.0393555574119091,3.725290298461914e-09,3049.382568359375,-2028.9561767578125,-15969.3486328125,-1583.3297119140625,295.5552062988281,2.7976453566225246e-05,44.17870330810547,-0.7215846180915833,8.527700424194336
1731876435514.0,0.0,0.0,-20.0,0.0,0.0,0.0,0.0,0.0,0.0,0.0,0.0,0.0,0.0,0.0,0.0,7.000274658203125,10.77117919921875,2.2862329483032227,-0.21346095204353333,0.03518622741103172,3.725290298461914e-09,3061.959716796875,-1961.604736328125,-15975.3544921875,-1603.064453125,264.24407958984375,2.7976453566225246e-05,44.171974182128906,-0.757608950138092,8.559367179870605
1731876435531.0,0.0,0.0,-20.0,0.0,0.0,0.0,0.0,0.0,0.0,0.0,0.0,0.0,0.0,0.0,0.0,6.756591796875,10.811187744140625,2.2911489009857178,-0.2161170244216919,0.03086700290441513,-3.725290298461914e-09,3073.197998046875,-1893.3909912109375,-15981.42578125,-1623.01123046875,231.8072509765625,-2.7976453566225246e-05,44.16594314575195,-0.7942115068435669,8.587121963500977
1731876435581.0,0.0,0.0,-20.0,0.0,0.0,0.0,0.0,0.0,0.0,0.0,0.0,0.0,0.0,0.0,0.0,6.25677490234375,10.871673583984375,2.2981948852539062,-0.22362357378005981,0.018018193542957306,0.0,3090.185302734375,-1753.552734375,-15994.1015625,-1679.384521484375,135.3143310546875,0.0,44.156795501708984,-0.8695099949836731,8.626769065856934
1731876435597.0,0.0,0.0,-20.0,0.0,0.0,0.0,0.0,0.0,0.0,0.0,0.0,0.0,0.0,0.0,0.0,6.00091552734375,10.8922119140625,2.3004395961761475,-0.22596190869808197,0.013796879909932613,0.0,3095.953125,-1681.99658203125,-16000.66796875,-1696.945068359375,103.61280822753906,0.0,44.1536865234375,-0.9081231951713562,8.638713836669922
1731876435614.0,0.0,0.0,-20.0,0.0,0.0,0.0,0.0,0.0,0.0,0.0,0.0,0.0,0.0,0.0,0.0,5.7423095703125,10.907928466796875,2.302086591720581,-0.22826433181762695,0.009524705819785595,3.725290298461914e-09,3100.3662109375,-1609.67529296875,-16007.2509765625,-1714.2359619140625,71.52932739257812,2.7976453566225246e-05,44.151302337646484,-0.9471799731254578,8.646697044372559
1731876435631.0,0.0,0.0,-20.0,0.0,0.0,0.0,0.0,0.0,0.0,0.0,0.0,0.0,0.0,0.0,0.0,5.48095703125,10.918792724609375,2.303173780441284,-0.23054441809654236,0.005171311553567648,3.725290298461914e-09,3103.41650390625,-1536.5863037109375,-16013.84375,-1731.359130859375,38.83588790893555,2.7976453566225246e-05,44.149654388427734,-0.9866619110107422,8.650693893432617
1731876435664.0,0.0,0.0,-20.0,0.0,0.0,0.0,0.0,0.0,0.0,0.0,0.0,0.0,0.0,0.0,0.0,5.21685791015625,10.9246826171875,2.303736686706543,-0.23486818373203278,-0.0034600617364048958,-3.725290298461914e-09,3105.0703125,-1462.726806640625,-16020.4375,-1763.830078125,-25.984621047973633,-2.7976453566225246e-05,44.14876174926758,-1.0265536308288574,8.65061092376709
1731876435681.0,0.0,0.0,-20.0,0.0,0.0,0.0,0.0,0.0,0.0,0.0,0.0,0.0,0.0,0.0,0.0,4.947662353515625,10.920745849609375,2.3033790588378906,-0.2369203418493271,-0.00775132467970252,0.0,3103.965087890625,-1387.459716796875,-16027.345703125,-1779.241455078125,-58.21146011352539,0.0,44.149356842041016,-1.0671672821044922,8.642647743225098
1731876435714.0,0.0,0.0,-20.0,0.0,0.0,0.0,0.0,0.0,0.0,0.0,0.0,0.0,0.0,0.0,0.0,4.402008056640625,10.8980712890625,2.3015024662017822,-0.24086135625839233,-0.0164046548306942,0.0,3097.59814453125,-1234.8575439453125,-16041.0556640625,-1808.8380126953125,-123.19686126708984,0.0,44.15278244018555,-1.1492975950241089,8.614570617675781
1731876435714.0,0.0,0.0,-20.0,0.0,0.0,0.0,0.0,0.0,0.0,0.0,0.0,0.0,0.0,0.0,0.0,4.402008056640625,10.8980712890625,2.3015024662017822,-0.24086135625839233,-0.0164046548306942,0.0,3097.59814453125,-1234.8575439453125,-16041.0556640625,-1808.8380126953125,-123.19686126708984,0.0,44.15278244018555,-1.1492975950241089,8.614570617675781
1731876435765.0,0.0,0.0,-20.0,0.0,0.0,0.0,0.0,0.0,0.0,0.0,0.0,0.0,0.0,0.0,0.0,3.847259521484375,10.8555908203125,2.298395872116089,-0.2462577372789383,-0.029339008033275604,0.0,3085.668701171875,-1079.6434326171875,-16054.546875,-1849.3641357421875,-220.3321990966797,0.0,44.15917205810547,-1.2324132919311523,8.570228576660156
1731876435781.0,0.0,0.0,-20.0,0.0,0.0,0.0,0.0,0.0,0.0,0.0,0.0,0.0,0.0,0.0,0.0,3.564666748046875,10.822052001953125,2.2961833477020264,-0.24789252877235413,-0.03356795758008957,-3.725290298461914e-09,3076.249755859375,-1000.558837890625,-16061.4755859375,-1861.6412353515625,-252.09107971191406,-2.7976453566225246e-05,44.164188385009766,-1.2745414972305298,8.538151741027832
1731876435814.0,0.0,0.0,-20.0,0.0,0.0,0.0,0.0,0.0,0.0,0.0,0.0,0.0,0.0,0.0,0.0,2.99383544921875,10.74041748046875,2.2914340496063232,-0.25094738602638245,-0.04196612909436226,7.450580596923828e-09,3053.317626953125,-840.7212524414062,-16075.0087890625,-1884.582763671875,-315.1602783203125,5.595290713245049e-05,44.17631912231445,-1.3591049909591675,8.462015151977539
1731876435814.0,0.0,0.0,-20.0,0.0,0.0,0.0,0.0,0.0,0.0,0.0,0.0,0.0,0.0,0.0,0.0,2.99383544921875,10.74041748046875,2.2914340496063232,-0.25094738602638245,-0.04196612909436226,7.450580596923828e-09,3053.317626953125,-840.7212524414062,-16075.0087890625,-1884.582763671875,-315.1602783203125,5.595290713245049e-05,44.17631912231445,-1.3591049909591675,8.462015151977539
1731876435864.0,0.0,0.0,-20.0,0.0,0.0,0.0,0.0,0.0,0.0,0.0,0.0,0.0,0.0,0.0,0.0,2.416168212890625,10.639495849609375,2.2865936756134033,-0.2550640106201172,-0.05462874472141266,-3.725290298461914e-09,3024.95947265625,-678.8355102539062,-16088.015625,-1915.4981689453125,-410.2548828125,-2.7976453566225246e-05,44.191158294677734,-1.4438347816467285,8.369993209838867
1731876435881.0,0.0,0.0,-20.0,0.0,0.0,0.0,0.0,0.0,0.0,0.0,0.0,0.0,0.0,0.0,0.0,2.1234130859375,10.57696533203125,2.284071207046509,-0.25629764795303345,-0.058830976486206055,-3.725290298461914e-09,3007.38427734375,-596.7466430664062,-16094.564453125,-1924.7625732421875,-441.8131103515625,-2.7976453566225246e-05,44.20027160644531,-1.4863907098770142,8.314248085021973
1731876435897.0,0.0,0.0,-20.0,0.0,0.0,0.0,0.0,0.0,0.0,0.0,0.0,0.0,0.0,0.0,0.0,1.82928466796875,10.50958251953125,2.2817065715789795,-0.2574390470981598,-0.06294053047895432,0.0,2988.44091796875,-514.2301025390625,-16100.939453125,-1933.3343505859375,-472.67535400390625,0.0,44.210018157958984,-1.5288567543029785,8.254501342773438
1731876435914.0,0.0,0.0,-20.0,0.0,0.0,0.0,0.0,0.0,0.0,0.0,0.0,0.0,0.0,0.0,0.0,1.533905029296875,10.4375,2.2795538902282715,-0.25853416323661804,-0.06712417304515839,0.0,2968.17236328125,-431.3179626464844,-16107.1201171875,-1941.55859375,-504.0939636230469,0.0,44.220367431640625,-1.5711909532546997,8.190871238708496
1731876435931.0,0.0,0.0,-20.0,0.0,0.0,0.0,0.0,0.0,0.0,0.0,0.0,0.0,0.0,0.0,0.0,1.2373046875,10.360595703125,2.277662754058838,-0.2595457136631012,-0.07124362140893936,-3.725290298461914e-09,2946.542236328125,-348.0173034667969,-16113.107421875,-1949.1551513671875,-535.030517578125,-2.7976453566225246e-05,44.231319427490234,-1.6133688688278198,8.123258590698242
1731876435981.0,0.0,0.0,-20.0,0.0,0.0,0.0,0.0,0.0,0.0,0.0,0.0,0.0,0.0,0.0,0.0,0.639862060546875,10.1878662109375,2.274810552597046,-0.26216402649879456,-0.08355394750833511,7.450580596923828e-09,2897.941650390625,-180.08294677734375,-16124.669921875,-1968.818359375,-627.4794921875,5.595290713245049e-05,44.255584716796875,-1.6972346305847168,7.972613334655762
1731876435998.0,0.0,0.0,-20.0,0.0,0.0,0.0,0.0,0.0,0.0,0.0,0.0,0.0,0.0,0.0,0.0,0.33929443359375,10.092132568359375,2.273979902267456,-0.2628866136074066,-0.0875876396894455,3.725290298461914e-09,2870.99365234375,-95.52108001708984,-16130.212890625,-1974.244873046875,-657.77197265625,2.7976453566225246e-05,44.268836975097656,-1.7388206720352173,7.889644622802734
1731876436014.0,0.0,0.0,-20.0,0.0,0.0,0.0,0.0,0.0,0.0,0.0,0.0,0.0,0.0,0.0,0.0,0.037994384765625,9.99176025390625,2.273643970489502,-0.2635435461997986,-0.09164127707481384,3.725290298461914e-09,2842.7314453125,-10.699886322021484,-16135.49609375,-1979.1783447265625,-688.2142944335938,2.7976453566225246e-05,44.2825813293457,-1.7800732851028442,7.802829742431641
1731876436031.0,0.0,0.0,-20.0,0.0,0.0,0.0,0.0,0.0,0.0,0.0,0.0,0.0,0.0,0.0,0.0,-0.26397305727005005,9.886749267578125,2.2738547325134277,-0.2641301453113556,-0.0956982895731926,-3.725290298461914e-09,2813.15380859375,74.36306762695312,-16140.5107421875,-1983.5836181640625,-718.6819458007812,-2.7976453566225246e-05,44.29680252075195,-1.8209633827209473,7.7121663093566895
1731876436081.0,0.0,0.0,-20.0,0.0,0.0,0.0,0.0,0.0,0.0,0.0,0.0,0.0,0.0,0.0,0.0,-0.869987428188324,9.658416748046875,2.276170492172241,-0.2654142379760742,-0.10742918401956558,0.0,2748.808349609375,245.2413330078125,-16149.90234375,-1993.22705078125,-806.7794799804688,0.0,44.327144622802734,-1.9015668630599976,7.515864849090576
1731876436098.0,0.0,0.0,-20.0,0.0,0.0,0.0,0.0,0.0,0.0,0.0,0.0,0.0,0.0,0.0,0.0,-1.173758625984192,9.53533935546875,2.278397560119629,-0.265706866979599,-0.11142877489328384,0.0,2714.1064453125,330.98138427734375,-16154.2421875,-1995.4246826171875,-836.8158569335938,0.0,44.34318161010742,-1.9411839246749878,7.41041374206543
1731876436115.0,0.0,0.0,-20.0,0.0,0.0,0.0,0.0,0.0,0.0,0.0,0.0,0.0,0.0,0.0,0.0,-1.4777435064315796,9.407684326171875,2.281392812728882,-0.26591575145721436,-0.11526904255151749,3.725290298461914e-09,2678.1005859375,416.8381652832031,-16158.263671875,-1996.9932861328125,-865.65576171875,2.7976453566225246e-05,44.35957336425781,-1.980273723602295,7.30115270614624
1731876436131.0,0.0,0.0,-20.0,0.0,0.0,0.0,0.0,0.0,0.0,0.0,0.0,0.0,0.0,0.0,0.0,-1.781842827796936,9.275665283203125,2.2851998805999756,-0.266051709651947,-0.11909148842096329,-3.725290298461914e-09,2640.849609375,502.7829895019531,-16161.9501953125,-1998.014404296875,-894.3618774414062,-2.7976453566225246e-05,44.37627410888672,-2.018803596496582,7.188244819641113
1731876436181.0,0.0,0.0,-20.0,0.0,0.0,0.0,0.0,0.0,0.0,0.0,0.0,0.0,0.0,0.0,0.0,-2.389995813369751,8.9942626953125,2.2956039905548096,-0.26601627469062805,-0.13035626709461212,3.725290298461914e-09,2561.40185546875,674.8314208984375,-16168.4638671875,-1997.748291015625,-978.9589233398438,2.7976453566225246e-05,44.4110107421875,-2.0940499305725098,6.948173999786377
1731876436215.0,0.0,0.0,-20.0,0.0,0.0,0.0,0.0,0.0,0.0,0.0,0.0,0.0,0.0,0.0,0.0,-2.9972610473632812,8.691619873046875,2.310025930404663,-0.2656213939189911,-0.1377134621143341,-3.725290298461914e-09,2475.888671875,846.8519897460938,-16173.6904296875,-1994.78271484375,-1034.2105712890625,-2.7976453566225246e-05,44.44707107543945,-2.166600465774536,6.690569877624512
1731876436215.0,0.0,0.0,-20.0,0.0,0.0,0.0,0.0,0.0,0.0,0.0,0.0,0.0,0.0,0.0,0.0,-2.9972610473632812,8.691619873046875,2.310025930404663,-0.2656213939189911,-0.1377134621143341,-3.725290298461914e-09,2475.888671875,846.8519897460938,-16173.6904296875,-1994.78271484375,-1034.2105712890625,-2.7976453566225246e-05,44.44707107543945,-2.166600465774536,6.690569877624512
1731876436231.0,0.0,0.0,-20.0,0.0,0.0,0.0,0.0,0.0,0.0,0.0,0.0,0.0,0.0,0.0,0.0,-3.3003275394439697,8.534027099609375,2.3187925815582275,-0.26531752943992615,-0.14128220081329346,-3.725290298461914e-09,2431.33251953125,932.7791137695312,-16175.72265625,-1992.500732421875,-1061.01123046875,-2.7976453566225246e-05,44.46531677246094,-2.2017862796783447,6.556503772735596
1731876436281.0,0.0,0.0,-20.0,0.0,0.0,0.0,0.0,0.0,0.0,0.0,0.0,0.0,0.0,0.0,0.0,-3.9043591022491455,8.202728271484375,2.3398983478546143,-0.26395753026008606,-0.15185604989528656,3.725290298461914e-09,2337.604736328125,1104.1929931640625,-16178.7451171875,-1982.287353515625,-1140.4195556640625,2.7976453566225246e-05,44.50248718261719,-2.269786834716797,6.27508020401001
1731876436298.0,0.0,0.0,-20.0,0.0,0.0,0.0,0.0,0.0,0.0,0.0,0.0,0.0,0.0,0.0,0.0,-4.205077171325684,8.029144287109375,2.352327585220337,-0.263357013463974,-0.1553020477294922,3.725290298461914e-09,2288.46484375,1189.6055908203125,-16179.7158203125,-1977.777587890625,-1166.298583984375,2.7976453566225246e-05,44.521324157714844,-2.302525281906128,6.127819061279297
1731876436314.0,0.0,0.0,-20.0,0.0,0.0,0.0,0.0,0.0,0.0,0.0,0.0,0.0,0.0,0.0,0.0,-4.504977703094482,7.8516845703125,2.3659722805023193,-0.26268601417541504,-0.15869250893592834,3.725290298461914e-09,2238.205810546875,1274.828369140625,-16180.2568359375,-1972.7384033203125,-1191.760498046875,2.7976453566225246e-05,44.540122985839844,-2.334404468536377,5.977284908294678
1731876436331.0,0.0,0.0,-20.0,0.0,0.0,0.0,0.0,0.0,0.0,0.0,0.0,0.0,0.0,0.0,0.0,-4.803982734680176,7.670440673828125,2.3808650970458984,-0.2619340121746063,-0.1620759218931198,3.725290298461914e-09,2186.85302734375,1359.8353271484375,-16180.357421875,-1967.0909423828125,-1217.16943359375,2.7976453566225246e-05,44.55885314941406,-2.365403890609741,5.823548316955566
1731876436364.0,0.0,0.0,-20.0,0.0,0.0,0.0,0.0,0.0,0.0,0.0,0.0,0.0,0.0,0.0,0.0,-5.102004051208496,7.48541259765625,2.3970417976379395,-0.260222464799881,-0.16865728795528412,7.450580596923828e-09,2134.405517578125,1444.5985107421875,-16180.0146484375,-1954.2374267578125,-1266.5947265625,5.595290713245049e-05,44.57747268676758,-2.395501136779785,5.666611671447754
1731876436398.0,0.0,0.0,-20.0,0.0,0.0,0.0,0.0,0.0,0.0,0.0,0.0,0.0,0.0,0.0,0.0,-5.692594528198242,7.096923828125,2.434056282043457,-0.25822192430496216,-0.17505130171775818,-5.587935447692871e-09,2024.2138671875,1612.69677734375,-16178.294921875,-1939.213623046875,-1314.6129150390625,-4.196468216832727e-05,44.61494827270508,-2.4526760578155518,5.337692737579346
1731876436414.0,0.0,0.0,-20.0,0.0,0.0,0.0,0.0,0.0,0.0,0.0,0.0,0.0,0.0,0.0,0.0,-5.985990047454834,6.897369384765625,2.4546172618865967,-0.2571265697479248,-0.17814180254936218,-3.725290298461914e-09,1967.5751953125,1696.24462890625,-16176.73828125,-1930.9876708984375,-1337.8221435546875,-2.7976453566225246e-05,44.63333511352539,-2.4798054695129395,5.168724060058594
1731876436431.0,0.0,0.0,-20.0,0.0,0.0,0.0,0.0,0.0,0.0,0.0,0.0,0.0,0.0,0.0,0.0,-6.278038024902344,6.694427490234375,2.4765772819519043,-0.25595247745513916,-0.18120631575584412,-3.725290298461914e-09,1909.950927734375,1779.429443359375,-16174.7080078125,-1922.17041015625,-1360.8363037109375,-2.7976453566225246e-05,44.65144729614258,-2.505946397781372,4.996870040893555
1731876436464.0,0.0,0.0,-20.0,0.0,0.0,0.0,0.0,0.0,0.0,0.0,0.0,0.0,0.0,0.0,0.0,-6.5686540603637695,6.488067626953125,2.499962568283081,-0.25336316227912903,-0.18724940717220306,-3.725290298461914e-09,1851.331298828125,1862.222412109375,-16172.2021484375,-1902.7249755859375,-1406.2191162109375,-2.7976453566225246e-05,44.66923904418945,-2.5310773849487305,4.822108745574951
1731876436481.0,0.0,0.0,-20.0,0.0,0.0,0.0,0.0,0.0,0.0,0.0,0.0,0.0,0.0,0.0,0.0,-6.85618257522583,6.27496337890625,2.5251994132995605,-0.2519665062427521,-0.19018162786960602,3.725290298461914e-09,1790.7706298828125,1944.1644287109375,-16169.3798828125,-1892.236328125,-1428.23974609375,2.7976453566225246e-05,44.68696212768555,-2.5550553798675537,4.641900539398193
1731876436498.0,0.0,0.0,-20.0,0.0,0.0,0.0,0.0,0.0,0.0,0.0,0.0,0.0,0.0,0.0,0.0,-7.142044544219971,6.05865478515625,2.551909923553467,-0.2504664659500122,-0.19312314689159393,-3.725290298461914e-09,1729.2742919921875,2025.6387939453125,-16166.072265625,-1880.97119140625,-1450.3302001953125,-2.7976453566225246e-05,44.70426940917969,-2.577986001968384,4.45896053314209
1731876436515.0,0.0,0.0,-20.0,0.0,0.0,0.0,0.0,0.0,0.0,0.0,0.0,0.0,0.0,0.0,0.0,-7.426135063171387,5.839141845703125,2.580120325088501,-0.24895644187927246,-0.1958959698677063,-7.450580596923828e-09,1666.841552734375,2106.61083984375,-16162.279296875,-1869.631103515625,-1471.1536865234375,-5.595290713245049e-05,44.72113037109375,-2.599858045578003,4.273292541503906
1731876436532.0,0.0,0.0,-20.0,0.0,0.0,0.0,0.0,0.0,0.0,0.0,0.0,0.0,0.0,0.0,0.0,-7.708454132080078,5.61663818359375,2.609830856323242,-0.2473313808441162,-0.19869603216648102,5.587935447692871e-09,1603.533203125,2187.074462890625,-16157.99609375,-1857.4271240234375,-1492.1817626953125,4.196468216832727e-05,44.73750686645508,-2.620669364929199,4.085065841674805
1731876436582.0,0.0,0.0,-20.0,0.0,0.0,0.0,0.0,0.0,0.0,0.0,0.0,0.0,0.0,0.0,0.0,-8.26535415649414,5.15960693359375,2.674260377883911,-0.2421015053987503,-0.20665860176086426,-1.862645149230957e-09,1473.4207763671875,2345.78466796875,-16148.1201171875,-1818.1513671875,-1551.979736328125,-1.3988226783112623e-05,44.768856048583984,-2.658923864364624,3.698640823364258
1731876436598.0,0.0,0.0,-20.0,0.0,0.0,0.0,0.0,0.0,0.0,0.0,0.0,0.0,0.0,0.0,0.0,-8.539730072021484,4.92535400390625,2.7089991569519043,-0.2402271032333374,-0.20919233560562134,0.0,1406.6943359375,2423.961181640625,-16142.5224609375,-1804.0748291015625,-1571.0076904296875,0.0,44.783729553222656,-2.6763553619384766,3.500669240951538
1731876436615.0,0.0,0.0,-20.0,0.0,0.0,0.0,0.0,0.0,0.0,0.0,0.0,0.0,0.0,0.0,0.0,-8.811969757080078,4.688385009765625,2.745286703109741,-0.23832935094833374,-0.211614191532135,1.862645149230957e-09,1339.17041015625,2501.50439453125,-16136.435546875,-1789.822998046875,-1589.195556640625,1.3988226783112623e-05,44.79795455932617,-2.6926937103271484,3.3003759384155273
1731876436632.0,0.0,0.0,-20.0,0.0,0.0,0.0,0.0,0.0,0.0,0.0,0.0,0.0,0.0,0.0,0.0,-9.082061767578125,4.448822021484375,2.7831199169158936,-0.23627126216888428,-0.21409359574317932,6.51925802230835e-09,1270.8839111328125,2578.404541015625,-16129.8544921875,-1774.366943359375,-1607.8155517578125,4.895879465038888e-05,44.811500549316406,-2.7079405784606934,3.0978612899780273
1731876436665.0,0.0,0.0,-20.0,0.0,0.0,0.0,0.0,0.0,0.0,0.0,0.0,0.0,0.0,0.0,0.0,-9.349837303161621,4.2066650390625,2.822523832321167,-0.23203623294830322,-0.21877290308475494,-2.7939677238464355e-09,1201.83544921875,2654.60888671875,-16122.7802734375,-1742.5625,-1642.95654296875,-2.0982341084163636e-05,44.82432174682617,-2.7220969200134277,2.8931331634521484
1731876436699.0,0.0,0.0,-20.0,0.0,0.0,0.0,0.0,0.0,0.0,0.0,0.0,0.0,0.0,0.0,0.0,-9.873364448547363,3.709869384765625,2.906865119934082,-0.22754910588264465,-0.22319871187210083,-9.313225746154785e-10,1060.1136474609375,2803.495849609375,-16107.513671875,-1708.86474609375,-1676.19384765625,-6.994113391556311e-06,44.847923278808594,-2.7468960285186768,2.473564863204956
1731876436715.0,0.0,0.0,-20.0,0.0,0.0,0.0,0.0,0.0,0.0,0.0,0.0,0.0,0.0,0.0,0.0,-10.131335258483887,3.457977294921875,2.951375961303711,-0.22530490159988403,-0.22523438930511475,-1.862645149230957e-09,988.224853515625,2876.782470703125,-16099.1611328125,-1692.010986328125,-1691.4814453125,-1.3988226783112623e-05,44.85849380493164,-2.7576675415039062,2.2608048915863037
1731876436715.0,0.0,0.0,-20.0,0.0,0.0,0.0,0.0,0.0,0.0,0.0,0.0,0.0,0.0,0.0,0.0,-10.131335258483887,3.457977294921875,2.951375961303711,-0.22530490159988403,-0.22523438930511475,-1.862645149230957e-09,988.224853515625,2876.782470703125,-16099.1611328125,-1692.010986328125,-1691.4814453125,-1.3988226783112623e-05,44.85849380493164,-2.7576675415039062,2.2608048915863037
1731876436765.0,0.0,0.0,-20.0,0.0,0.0,0.0,0.0,0.0,0.0,0.0,0.0,0.0,0.0,0.0,0.0,-10.639634132385254,2.9478759765625,3.0450265407562256,-0.2179097831249237,-0.2312273532152176,-3.725290298461914e-09,842.5872192382812,3020.995361328125,-16081.0166015625,-1636.474609375,-1736.4879150390625,-2.7976453566225246e-05,44.87699890136719,-2.776012897491455,1.8298887014389038
1731876436782.0,0.0,0.0,-20.0,0.0,0.0,0.0,0.0,0.0,0.0,0.0,0.0,0.0,0.0,0.0,0.0,-10.886905670166016,2.68756103515625,3.094569444656372,-0.21531528234481812,-0.2331005483865738,-2.7939677238464355e-09,768.239013671875,3091.059326171875,-16071.421875,-1616.990234375,-1750.5552978515625,-2.0982341084163636e-05,44.88495635986328,-2.783508062362671,1.6102112531661987
1731876436815.0,0.0,0.0,-20.0,0.0,0.0,0.0,0.0,0.0,0.0,0.0,0.0,0.0,0.0,0.0,0.0,-11.373006820678711,2.161376953125,3.198190450668335,-0.21000488102436066,-0.23661214113235474,-2.7939677238464355e-09,617.9094848632812,3228.552490234375,-16050.859375,-1577.10986328125,-1776.927001953125,-2.0982341084163636e-05,44.89794921875,-2.7953991889953613,1.1661540269851685
1731876436815.0,0.0,0.0,-20.0,0.0,0.0,0.0,0.0,0.0,0.0,0.0,0.0,0.0,0.0,0.0,0.0,-11.373006820678711,2.161376953125,3.198190450668335,-0.21000488102436066,-0.23661214113235474,-2.7939677238464355e-09,617.9094848632812,3228.552490234375,-16050.859375,-1577.10986328125,-1776.927001953125,-2.0982341084163636e-05,44.89794921875,-2.7953991889953613,1.1661540269851685
1731876436865.0,0.0,0.0,-20.0,0.0,0.0,0.0,0.0,0.0,0.0,0.0,0.0,0.0,0.0,0.0,0.0,-11.847517013549805,1.628326416015625,3.3077809810638428,-0.2015540897846222,-0.241416797041893,3.725290298461914e-09,465.56500244140625,3362.404296875,-16028.5029296875,-1513.6455078125,-1813.00927734375,2.7976453566225246e-05,44.90688705444336,-2.803262710571289,0.7163097262382507
1731876436882.0,0.0,0.0,-20.0,0.0,0.0,0.0,0.0,0.0,0.0,0.0,0.0,0.0,0.0,0.0,0.0,-12.076987266540527,1.357696533203125,3.3651394844055176,-0.19863083958625793,-0.2428806722164154,4.190951585769653e-09,388.2033996582031,3426.99365234375,-16016.880859375,-1491.6922607421875,-1824.0028076171875,3.1473511626245454e-05,44.90979766845703,-2.8056914806365967,0.488175630569458
1731876436915.0,0.0,0.0,-20.0,0.0,0.0,0.0,0.0,0.0,0.0,0.0,0.0,0.0,0.0,0.0,0.0,-12.526538848876953,0.812286376953125,3.4841113090515137,-0.19258613884449005,-0.24562010169029236,2.0372681319713593e-10,232.2693634033203,3553.197998046875,-15992.380859375,-1446.29736328125,-1844.5755615234375,1.5299623328246525e-06,44.91231155395508,-2.807739496231079,0.028469720855355263
1731876436915.0,0.0,0.0,-20.0,0.0,0.0,0.0,0.0,0.0,0.0,0.0,0.0,0.0,0.0,0.0,0.0,-12.526538848876953,0.812286376953125,3.4841113090515137,-0.19258613884449005,-0.24562010169029236,2.0372681319713593e-10,232.2693634033203,3553.197998046875,-15992.380859375,-1446.29736328125,-1844.5755615234375,1.5299623328246525e-06,44.91231155395508,-2.807739496231079,0.028469720855355263
1731876436965.0,0.0,0.0,-20.0,0.0,0.0,0.0,0.0,0.0,0.0,0.0,0.0,0.0,0.0,0.0,0.0,-12.963225364685059,0.2618408203125,3.6086301803588867,-0.18314526975154877,-0.24920128285884857,-2.0954757928848267e-09,74.8743667602539,3675.3125,-15966.2744140625,-1375.3975830078125,-1871.4698486328125,-1.5736755813122727e-05,44.910308837890625,-2.806194543838501,-0.4353558421134949
1731876436982.0,0.0,0.0,-20.0,0.0,0.0,0.0,0.0,0.0,0.0,0.0,0.0,0.0,0.0,0.0,0.0,-13.172957420349121,-0.016341708600521088,3.673198938369751,-0.1799507886171341,-0.25023895502090454,2.0954757928848267e-09,-4.672989368438721,3733.771484375,-15952.880859375,-1351.407470703125,-1879.2625732421875,1.5736755813122727e-05,44.90755081176758,-2.804168701171875,-0.6694701910018921
1731876436999.0,0.0,0.0,-20.0,0.0,0.0,0.0,0.0,0.0,0.0,0.0,0.0,0.0,0.0,0.0,0.0,-13.379344940185547,-0.2954306900501251,3.7390501499176025,-0.17663495242595673,-0.2512300908565521,-1.1641532182693481e-09,-84.47943878173828,3791.16162109375,-15939.1162109375,-1326.5059814453125,-1886.7059326171875,-8.742642421566416e-06,44.90361404418945,-2.8013362884521484,-0.9043005704879761
1731876437015.0,0.0,0.0,-20.0,0.0,0.0,0.0,0.0,0.0,0.0,0.0,0.0,0.0,0.0,0.0,0.0,-13.582263946533203,-0.5753872394561768,3.8061635494232178,-0.17326930165290833,-0.25215038657188416,1.0710209608078003e-08,-164.53195190429688,3847.444580078125,-15924.998046875,-1301.2303466796875,-1893.6171875,8.043230627663434e-05,44.89847946166992,-2.7977254390716553,-1.139801025390625
1731876437065.0,0.0,0.0,-20.0,0.0,0.0,0.0,0.0,0.0,0.0,0.0,0.0,0.0,0.0,0.0,0.0,-13.977503776550293,-1.1375855207443237,3.94407057762146,-0.1629476249217987,-0.25447210669517517,-1.0244548320770264e-08,-325.276611328125,3956.626220703125,-15895.7470703125,-1223.7158203125,-1911.052978515625,-7.693524821661413e-05,44.88457489013672,-2.7882912158966064,-1.612514853477478
1731876437082.0,0.0,0.0,-20.0,0.0,0.0,0.0,0.0,0.0,0.0,0.0,0.0,0.0,0.0,0.0,0.0,-14.165811538696289,-1.4204386472702026,4.014986515045166,-0.15943241119384766,-0.25510165095329285,-4.656612873077393e-10,-406.1395568847656,4008.406494140625,-15880.9072265625,-1197.3170166015625,-1915.78076171875,-3.4970566957781557e-06,44.87576675415039,-2.782648801803589,-1.8500083684921265
1731876437099.0,0.0,0.0,-20.0,0.0,0.0,0.0,0.0,0.0,0.0,0.0,0.0,0.0,0.0,0.0,0.0,-14.350470542907715,-1.7037591934204102,4.087009906768799,-0.15586009621620178,-0.2556629180908203,3.725290298461914e-09,-487.126220703125,4059.0205078125,-15865.765625,-1170.4893798828125,-1919.995849609375,2.7976453566225246e-05,44.865718841552734,-2.7763702869415283,-2.0878043174743652
1731876437115.0,0.0,0.0,-20.0,0.0,0.0,0.0,0.0,0.0,0.0,0.0,0.0,0.0,0.0,0.0,0.0,-14.531427383422852,-1.9874708652496338,4.160109043121338,-0.15223117172718048,-0.2561548054218292,8.381903171539307e-09,-568.2127685546875,4108.45263671875,-15850.3388671875,-1143.2366943359375,-1923.6898193359375,6.294702325249091e-05,44.854434967041016,-2.76949143409729,-2.32582950592041
1731876437132.0,0.0,0.0,-20.0,0.0,0.0,0.0,0.0,0.0,0.0,0.0,0.0,0.0,0.0,0.0,0.0,-14.708626747131348,-2.271498203277588,4.234249591827393,-0.14858664572238922,-0.25657224655151367,-6.51925802230835e-09,-649.3755493164062,4156.68798828125,-15834.63671875,-1115.86669921875,-1926.8248291015625,-4.895879465038888e-05,44.84191131591797,-2.762047529220581,-2.5640127658843994
1731876437182.0,0.0,0.0,-20.0,0.0,0.0,0.0,0.0,0.0,0.0,0.0,0.0,0.0,0.0,0.0,0.0,-15.047417640686035,-2.8404881954193115,4.385585784912109,-0.13734182715415955,-0.25740304589271545,2.7939677238464355e-09,-811.9183959960938,4248.36083984375,-15802.7734375,-1031.4195556640625,-1933.06396484375,2.0982341084163636e-05,44.813114166259766,-2.7458250522613525,-3.040595769882202
1731876437199.0,0.0,0.0,-20.0,0.0,0.0,0.0,0.0,0.0,0.0,0.0,0.0,0.0,0.0,0.0,0.0,-15.20881175994873,-3.125227689743042,4.462668418884277,-0.13352490961551666,-0.25753623247146606,3.725290298461914e-09,-893.2306518554688,4291.74658203125,-15786.6572265625,-1002.7550048828125,-1934.064208984375,2.7976453566225246e-05,44.79684829711914,-2.7371456623077393,-3.278785228729248
1731876437215.0,0.0,0.0,-20.0,0.0,0.0,0.0,0.0,0.0,0.0,0.0,0.0,0.0,0.0,0.0,0.0,-15.366262435913086,-3.4098992347717285,4.540605545043945,-0.12965670228004456,-0.25759798288345337,4.6566128730773926e-09,-974.5014038085938,4333.88330078125,-15770.328125,-973.7052612304688,-1934.5279541015625,3.497056968626566e-05,44.77934646606445,-2.728071689605713,-3.5167737007141113
1731876437265.0,0.0,0.0,-20.0,0.0,0.0,0.0,0.0,0.0,0.0,0.0,0.0,0.0,0.0,0.0,0.0,-15.669126510620117,-3.9787349700927734,4.698887348175049,-0.11791174113750458,-0.2573544681072235,7.450580596923828e-09,-1136.823974609375,4414.35302734375,-15737.109375,-885.5021362304688,-1932.69921875,5.595290713245049e-05,44.74066162109375,-2.7089037895202637,-3.991858959197998
1731876437282.0,0.0,0.0,-20.0,0.0,0.0,0.0,0.0,0.0,0.0,0.0,0.0,0.0,0.0,0.0,0.0,-15.810006141662598,-4.2625837326049805,4.779092788696289,-0.11390567570924759,-0.257129430770874,1.862645149230957e-09,-1217.781982421875,4451.44482421875,-15720.595703125,-855.4170532226562,-1931.0091552734375,1.3988226783112623e-05,44.719505310058594,-2.699211359024048,-4.228466033935547
1731876437299.0,0.0,0.0,-20.0,0.0,0.0,0.0,0.0,0.0,0.0,0.0,0.0,0.0,0.0,0.0,0.0,-15.94674301147461,-4.545990467071533,4.859946250915527,-0.10985296219587326,-0.2568313479423523,9.313225746154785e-09,-1298.583984375,4487.240234375,-15703.943359375,-824.981689453125,-1928.7706298828125,6.994113937253132e-05,44.6971549987793,-2.689309597015381,-4.464521408081055
1731876437332.0,0.0,0.0,-20.0,0.0,0.0,0.0,0.0,0.0,0.0,0.0,0.0,0.0,0.0,0.0,0.0,-16.207590103149414,-5.111171722412109,5.023425102233887,-0.10167086869478226,-0.25601983070373535,2.7939677238464355e-09,-1459.6260986328125,4554.890625,-15670.2861328125,-763.5352172851562,-1922.67626953125,2.0982341084163636e-05,44.64890670776367,-2.6690518856048584,-4.934685707092285
1731876437332.0,0.0,0.0,-20.0,0.0,0.0,0.0,0.0,0.0,0.0,0.0,0.0,0.0,0.0,0.0,0.0,-16.207590103149414,-5.111171722412109,5.023425102233887,-0.10167086869478226,-0.25601983070373535,2.7939677238464355e-09,-1459.6260986328125,4554.890625,-15670.2861328125,-763.5352172851562,-1922.67626953125,2.0982341084163636e-05,44.64890670776367,-2.6690518856048584,-4.934685707092285
1731876437382.0,0.0,0.0,-20.0,0.0,0.0,0.0,0.0,0.0,0.0,0.0,0.0,0.0,0.0,0.0,0.0,-16.451465606689453,-5.673694133758545,5.188976764678955,-0.0893319621682167,-0.2542879283428192,-1.4901161193847656e-08,-1619.76953125,4617.267578125,-15636.259765625,-670.8716430664062,-1909.669921875,-0.00011190581426490098,44.59603500366211,-2.648465394973755,-5.401801109313965
1731876437399.0,0.0,0.0,-20.0,0.0,0.0,0.0,0.0,0.0,0.0,0.0,0.0,0.0,0.0,0.0,0.0,-16.562265396118164,-5.95307731628418,5.272197723388672,-0.08512744307518005,-0.2535634934902191,-2.7939677238464355e-09,-1699.24951171875,4645.18994140625,-15619.5458984375,-639.2962036132812,-1904.2294921875,-2.0982341084163636e-05,44.567970275878906,-2.6386075019836426,-5.63325834274292
1731876437415.0,0.0,0.0,-20.0,0.0,0.0,0.0,0.0,0.0,0.0,0.0,0.0,0.0,0.0,0.0,0.0,-16.668678283691406,-6.231507778167725,5.355754852294922,-0.08088365197181702,-0.2527652084827423,-1.862645149230957e-09,-1778.4183349609375,4671.767578125,-15602.7958984375,-607.4259033203125,-1898.234375,-1.3988226783112623e-05,44.538822174072266,-2.6288199424743652,-5.863685131072998
1731876437432.0,0.0,0.0,-20.0,0.0,0.0,0.0,0.0,0.0,0.0,0.0,0.0,0.0,0.0,0.0,0.0,-16.77066993713379,-6.508909702301025,5.439600944519043,-0.0766792893409729,-0.2519088387489319,0.0,-1857.2529296875,4696.9951171875,-15586.029296875,-575.8516845703125,-1891.80322265625,0.0,44.50859832763672,-2.6191492080688477,-6.093011379241943
1731876437466.0,0.0,0.0,-20.0,0.0,0.0,0.0,0.0,0.0,0.0,0.0,0.0,0.0,0.0,0.0,0.0,-16.868270874023438,-6.785227298736572,5.523693561553955,-0.06800465285778046,-0.24994011223316193,-2.3283064365386963e-09,-1935.736083984375,4720.88427734375,-15569.2529296875,-510.7062683105469,-1877.018310546875,-1.748528484313283e-05,44.477325439453125,-2.6096303462982178,-6.3211846351623535
1731876437499.0,0.0,0.0,-20.0,0.0,0.0,0.0,0.0,0.0,0.0,0.0,0.0,0.0,0.0,0.0,0.0,-17.03986358642578,-7.331976890563965,5.69165563583374,-0.05937866494059563,-0.24771913886070251,1.3969838619232178e-09,-2090.896240234375,4761.861328125,-15536.67578125,-445.9261779785156,-1860.339111328125,1.0491170542081818e-05,44.412017822265625,-2.592390775680542,-6.771430969238281
1731876437516.0,0.0,0.0,-20.0,0.0,0.0,0.0,0.0,0.0,0.0,0.0,0.0,0.0,0.0,0.0,0.0,-17.11883544921875,-7.603322982788086,5.775740146636963,-0.05506407842040062,-0.24651184678077698,-4.190951585769653e-09,-2167.830810546875,4780.302734375,-15520.4580078125,-413.5242004394531,-1851.2724609375,-3.1473511626245454e-05,44.37791442871094,-2.5842177867889404,-6.994454860687256
1731876437532.0,0.0,0.0,-20.0,0.0,0.0,0.0,0.0,0.0,0.0,0.0,0.0,0.0,0.0,0.0,0.0,-17.193254470825195,-7.873236179351807,5.859830856323242,-0.050814054906368256,-0.24526062607765198,0.0,-2244.310546875,4797.3857421875,-15504.3095703125,-381.6070556640625,-1841.8759765625,0.0,44.3428840637207,-2.5763931274414062,-7.216003894805908
1731876437549.0,0.0,0.0,-20.0,0.0,0.0,0.0,0.0,0.0,0.0,0.0,0.0,0.0,0.0,0.0,0.0,-17.263195037841797,-8.14167308807373,5.943889617919922,-0.0463905930519104,-0.24389375746250153,4.190951585769653e-09,-2320.322998046875,4813.134765625,-15488.232421875,-348.3874206542969,-1831.6109619140625,3.1473511626245454e-05,44.306949615478516,-2.5689475536346436,-7.436040878295898
1731876437599.0,0.0,0.0,-20.0,0.0,0.0,0.0,0.0,0.0,0.0,0.0,0.0,0.0,0.0,0.0,0.0,-17.384029388427734,-8.672135353088379,6.111170768737793,-0.033335812389850616,-0.23948082327842712,3.725290298461914e-09,-2470.380859375,4839.162109375,-15456.8818359375,-250.34768676757812,-1798.4703369140625,2.7976453566225246e-05,44.232730865478516,-2.5560922622680664,-7.8697004318237305
1731876437616.0,0.0,0.0,-20.0,0.0,0.0,0.0,0.0,0.0,0.0,0.0,0.0,0.0,0.0,0.0,0.0,-17.434946060180664,-8.933989524841309,6.1942572593688965,-0.028899814933538437,-0.23785415291786194,8.847564458847046e-09,-2544.376953125,4849.46240234375,-15441.642578125,-217.03392028808594,-1786.2542724609375,6.644408131251112e-05,44.194522857666016,-2.550773859024048,-8.083169937133789
1731876437632.0,0.0,0.0,-20.0,0.0,0.0,0.0,0.0,0.0,0.0,0.0,0.0,0.0,0.0,0.0,0.0,-17.48110580444336,-9.193994522094727,6.2770609855651855,-0.024471838027238846,-0.23616668581962585,3.958120942115784e-09,-2617.798095703125,4858.3828125,-15426.556640625,-183.78038024902344,-1773.5816650390625,2.972498259623535e-05,44.15556716918945,-2.5460405349731445,-8.29478645324707
1731876437649.0,0.0,0.0,-20.0,0.0,0.0,0.0,0.0,0.0,0.0,0.0,0.0,0.0,0.0,0.0,0.0,-17.52250862121582,-9.452094078063965,6.3595380783081055,-0.020069411024451256,-0.23442627489566803,-6.402842700481415e-09,-2690.6279296875,4865.92919921875,-15411.640625,-150.71871948242188,-1760.5113525390625,-4.808453013538383e-05,44.11589431762695,-2.5419304370880127,-8.504500389099121
1731876437682.0,0.0,0.0,-20.0,0.0,0.0,0.0,0.0,0.0,0.0,0.0,0.0,0.0,0.0,0.0,0.0,-17.559173583984375,-9.708235740661621,6.441645622253418,-0.011200496926903725,-0.2307310849428177,7.188646122813225e-09,-2762.8515625,4872.11328125,-15396.9033203125,-84.11430358886719,-1732.760986328125,5.398581561166793e-05,44.075531005859375,-2.5384743213653564,-8.712264060974121
1731876437716.0,0.0,0.0,-20.0,0.0,0.0,0.0,0.0,0.0,0.0,0.0,0.0,0.0,0.0,0.0,0.0,-17.607603073120117,-10.210163116455078,6.603150367736816,-0.0023515811190009117,-0.22679363191127777,1.234002411365509e-08,-2904.216796875,4877.61669921875,-15369.119140625,-17.66007423400879,-1703.191162109375,9.267200221074745e-05,43.99360275268555,-2.5352938175201416,-9.117838859558105
1731876437732.0,0.0,0.0,-20.0,0.0,0.0,0.0,0.0,0.0,0.0,0.0,0.0,0.0,0.0,0.0,0.0,-17.62464141845703,-10.45786190032959,6.683098793029785,0.002066340297460556,-0.22473441064357758,-3.725290298461914e-09,-2973.8984375,4878.33984375,-15355.5576171875,15.517951965332031,-1687.7266845703125,-2.7976453566225246e-05,43.9517936706543,-2.5348594188690186,-9.317412376403809
1731876437749.0,0.0,0.0,-20.0,0.0,0.0,0.0,0.0,0.0,0.0,0.0,0.0,0.0,0.0,0.0,0.0,-17.636838912963867,-10.703290939331055,6.762447357177734,0.006548644043505192,-0.22258153557777405,-7.916241884231567e-09,-3042.88671875,4877.7041015625,-15342.2392578125,49.179481506347656,-1671.5589599609375,-5.94499651924707e-05,43.90947341918945,-2.535250186920166,-9.514761924743652
1731876437782.0,0.0,0.0,-20.0,0.0,0.0,0.0,0.0,0.0,0.0,0.0,0.0,0.0,0.0,0.0,0.0,-17.644115447998047,-10.946357727050781,6.841142177581787,0.0153929078951478,-0.21814559400081635,7.916241884231567e-09,-3111.15576171875,4875.6962890625,-15329.1806640625,115.59877014160156,-1638.24560546875,5.94499651924707e-05,43.86668014526367,-2.536508560180664,-9.70980453491211
1731876437799.0,0.0,0.0,-20.0,0.0,0.0,0.0,0.0,0.0,0.0,0.0,0.0,0.0,0.0,0.0,0.0,-17.641294479370117,-11.184576034545898,6.918339729309082,0.01980116218328476,-0.21584106981754303,3.725290298461914e-09,-3178.009033203125,4870.9794921875,-15316.9609375,148.70419311523438,-1620.9388427734375,2.7976453566225246e-05,43.82390213012695,-2.5395264625549316,-9.90031623840332
1731876437832.0,0.0,0.0,-20.0,0.0,0.0,0.0,0.0,0.0,0.0,0.0,0.0,0.0,0.0,0.0,0.0,-17.620925903320312,-11.653403282165527,7.070362567901611,0.02871311455965042,-0.2109910547733307,4.6566128730773926e-09,-3309.41845703125,4857.4990234375,-15293.39453125,215.63182067871094,-1584.515869140625,3.497056968626566e-05,43.73729705810547,-2.5484213829040527,-10.27397632598877
1731876437832.0,0.0,0.0,-20.0,0.0,0.0,0.0,0.0,0.0,0.0,0.0,0.0,0.0,0.0,0.0,0.0,-17.620925903320312,-11.653403282165527,7.070362567901611,0.02871311455965042,-0.2109910547733307,4.6566128730773926e-09,-3309.41845703125,4857.4990234375,-15293.39453125,215.63182067871094,-1584.515869140625,3.497056968626566e-05,43.73729705810547,-2.5484213829040527,-10.27397632598877
1731876437882.0,0.0,0.0,-20.0,0.0,0.0,0.0,0.0,0.0,0.0,0.0,0.0,0.0,0.0,0.0,0.0,-17.58056640625,-12.111549377441406,7.2188944816589355,0.04186466708779335,-0.20336219668388367,0.0,-3437.61962890625,4838.57666015625,-15271.095703125,314.3983154296875,-1527.22412109375,0.0,43.64958190917969,-2.561375141143799,-10.637354850769043
1731876437899.0,0.0,0.0,-20.0,0.0,0.0,0.0,0.0,0.0,0.0,0.0,0.0,0.0,0.0,0.0,0.0,-17.547822952270508,-12.333718299865723,7.290850639343262,0.046285636723041534,-0.2006697803735733,-4.6566128730773926e-09,-3499.7099609375,4825.79345703125,-15261.03515625,347.5992126464844,-1507.00439453125,-3.497056968626566e-05,43.605960845947266,-2.5703577995300293,-10.812649726867676
1731876437916.0,0.0,0.0,-20.0,0.0,0.0,0.0,0.0,0.0,0.0,0.0,0.0,0.0,0.0,0.0,0.0,-17.510066986083984,-12.552990913391113,7.361773490905762,0.05067754536867142,-0.1979304552078247,-1.862645149230957e-09,-3560.93896484375,4811.67138671875,-15251.328125,380.5818786621094,-1486.4324951171875,-1.3988226783112623e-05,43.56222152709961,-2.5804457664489746,-10.985185623168945
1731876437932.0,0.0,0.0,-20.0,0.0,0.0,0.0,0.0,0.0,0.0,0.0,0.0,0.0,0.0,0.0,0.0,-17.467308044433594,-12.769320487976074,7.431633472442627,0.05497570335865021,-0.19518668949604034,-1.862645149230957e-09,-3621.29541015625,4796.21875,-15241.9794921875,412.8605041503906,-1465.8271484375,-1.3988226783112623e-05,43.51839828491211,-2.5916647911071777,-11.154925346374512
1731876437949.0,0.0,0.0,-20.0,0.0,0.0,0.0,0.0,0.0,0.0,0.0,0.0,0.0,0.0,0.0,0.0,-17.419633865356445,-12.982701301574707,7.500409126281738,0.05932226777076721,-0.19234813749790192,5.587935447692871e-09,-3680.7783203125,4779.4638671875,-15232.9921875,445.5026550292969,-1444.5098876953125,4.196468216832727e-05,43.474525451660156,-2.6040213108062744,-11.321866989135742
1731876438000.0,0.0,0.0,-20.0,0.0,0.0,0.0,0.0,0.0,0.0,0.0,0.0,0.0,0.0,0.0,0.0,-17.30400848388672,-13.396970748901367,7.633465766906738,0.07230447977781296,-0.18347975611686707,-1.862645149230957e-09,-3796.114990234375,4740.673828125,-15216.7998046875,542.9974365234375,-1377.9095458984375,-1.3988226783112623e-05,43.387535095214844,-2.63329815864563,-11.644214630126953
1731876438016.0,0.0,0.0,-20.0,0.0,0.0,0.0,0.0,0.0,0.0,0.0,0.0,0.0,0.0,0.0,0.0,-17.236135482788086,-13.597743034362793,7.697657585144043,0.07654610276222229,-0.18045276403427124,-1.1175870895385742e-08,-3851.94140625,4718.67333984375,-15209.6064453125,574.8514404296875,-1355.17724609375,-8.392936433665454e-05,43.344520568847656,-2.650249481201172,-11.799530029296875
1731876438033.0,0.0,0.0,-20.0,0.0,0.0,0.0,0.0,0.0,0.0,0.0,0.0,0.0,0.0,0.0,0.0,-17.163320541381836,-13.795279502868652,7.760592460632324,0.08082853257656097,-0.17733044922351837,-3.725290298461914e-09,-3906.8212890625,4695.3935546875,-15202.8125,607.011962890625,-1331.72900390625,-2.7976453566225246e-05,43.301658630371094,-2.6684296131134033,-11.951813697814941
1731876438049.0,0.0,0.0,-20.0,0.0,0.0,0.0,0.0,0.0,0.0,0.0,0.0,0.0,0.0,0.0,0.0,-17.08549690246582,-13.989474296569824,7.822228908538818,0.08488792181015015,-0.17430837452411652,0.0,-3960.727783203125,4670.822265625,-15196.4296875,637.4974365234375,-1309.0335693359375,0.0,43.25900650024414,-2.687870502471924,-12.100981712341309
1731876438082.0,0.0,0.0,-20.0,0.0,0.0,0.0,0.0,0.0,0.0,0.0,0.0,0.0,0.0,0.0,0.0,-17.002912521362305,-14.180445671081543,7.882589817047119,0.0932748019695282,-0.16786804795265198,0.0,-4013.695556640625,4645.02783203125,-15190.4384765625,700.4818725585938,-1260.6676025390625,0.0,43.2165641784668,-2.7085390090942383,-12.247135162353516
1731876438116.0,0.0,0.0,-20.0,0.0,0.0,0.0,0.0,0.0,0.0,0.0,0.0,0.0,0.0,0.0,0.0,-16.812681198120117,-14.544876098632812,7.996953010559082,0.10163240134716034,-0.16117863357067108,3.725290298461914e-09,-4114.6484375,4587.09033203125,-15181.03125,763.246337890625,-1210.430908203125,2.7976453566225246e-05,43.13422775268555,-2.7558021545410156,-12.5237398147583
1731876438133.0,0.0,0.0,-20.0,0.0,0.0,0.0,0.0,0.0,0.0,0.0,0.0,0.0,0.0,0.0,0.0,-16.710126876831055,-14.721726417541504,8.052003860473633,0.10577584058046341,-0.15775832533836365,-1.862645149230957e-09,-4163.5791015625,4556.23681640625,-15176.98046875,794.363037109375,-1184.744873046875,-1.3988226783112623e-05,43.0936393737793,-2.781395196914673,-12.65709400177002
1731876438133.0,0.0,0.0,-20.0,0.0,0.0,0.0,0.0,0.0,0.0,0.0,0.0,0.0,0.0,0.0,0.0,-16.710126876831055,-14.721726417541504,8.052003860473633,0.10577584058046341,-0.15775832533836365,-1.862645149230957e-09,-4163.5791015625,4556.23681640625,-15176.98046875,794.363037109375,-1184.744873046875,-1.3988226783112623e-05,43.0936393737793,-2.781395196914673,-12.65709400177002
1731876438183.0,0.0,0.0,-20.0,0.0,0.0,0.0,0.0,0.0,0.0,0.0,0.0,0.0,0.0,0.0,0.0,-16.490217208862305,-15.064445495605469,8.157736778259277,0.11775791645050049,-0.1474630981683731,3.725290298461914e-09,-4258.2890625,4490.802734375,-15170.205078125,884.346923828125,-1107.4290771484375,2.7976453566225246e-05,43.01383590698242,-2.8365397453308105,-12.913713455200195
1731876438200.0,0.0,0.0,-20.0,0.0,0.0,0.0,0.0,0.0,0.0,0.0,0.0,0.0,0.0,0.0,0.0,-16.36821174621582,-15.226523399353027,8.207249641418457,0.12181894481182098,-0.1438320130109787,3.725290298461914e-09,-4303.0263671875,4455.076171875,-15168.1142578125,914.8447265625,-1080.1600341796875,2.7976453566225246e-05,42.9755744934082,-2.867095947265625,-13.033798217773438
1731876438233.0,0.0,0.0,-20.0,0.0,0.0,0.0,0.0,0.0,0.0,0.0,0.0,0.0,0.0,0.0,0.0,-16.109535217285156,-15.539040565490723,8.301666259765625,0.12964874505996704,-0.13661827147006989,-3.725290298461914e-09,-4389.1904296875,4379.97314453125,-15165.2998046875,973.6455078125,-1025.9857177734375,-2.7976453566225246e-05,42.90087127685547,-2.932213306427002,-13.263379096984863
1731876438233.0,0.0,0.0,-20.0,0.0,0.0,0.0,0.0,0.0,0.0,0.0,0.0,0.0,0.0,0.0,0.0,-16.109535217285156,-15.539040565490723,8.301666259765625,0.12964874505996704,-0.13661827147006989,-3.725290298461914e-09,-4389.1904296875,4379.97314453125,-15165.2998046875,973.6455078125,-1025.9857177734375,-2.7976453566225246e-05,42.90087127685547,-2.932213306427002,-13.263379096984863
1731876438283.0,0.0,0.0,-20.0,0.0,0.0,0.0,0.0,0.0,0.0,0.0,0.0,0.0,0.0,0.0,0.0,-15.831809997558594,-15.835979461669922,8.389948844909668,0.14112666249275208,-0.12550781667232513,0.0,-4470.9384765625,4300.1484375,-15164.2626953125,1059.84326171875,-942.5476684570312,0.0,42.828792572021484,-3.002605676651001,-13.47883129119873
1731876438300.0,0.0,0.0,-20.0,0.0,0.0,0.0,0.0,0.0,0.0,0.0,0.0,0.0,0.0,0.0,0.0,-15.681220054626465,-15.974396705627441,8.430558204650879,0.1448526233434677,-0.12175603210926056,-3.725290298461914e-09,-4509.00439453125,4257.3466796875,-15165.0703125,1087.82470703125,-914.3722534179688,-2.7976453566225246e-05,42.79483413696289,-3.0407891273498535,-13.577765464782715
1731876438317.0,0.0,0.0,-20.0,0.0,0.0,0.0,0.0,0.0,0.0,0.0,0.0,0.0,0.0,0.0,0.0,-15.526021003723145,-16.108779907226562,8.46960735321045,0.14856559038162231,-0.11794272065162659,-3.725290298461914e-09,-4545.935546875,4213.41015625,-15166.314453125,1115.7086181640625,-885.7347412109375,-2.7976453566225246e-05,42.761653900146484,-3.0802626609802246,-13.673073768615723
1731876438333.0,0.0,0.0,-20.0,0.0,0.0,0.0,0.0,0.0,0.0,0.0,0.0,0.0,0.0,0.0,0.0,-15.366216659545898,-16.23904800415039,8.507084846496582,0.15225031971931458,-0.11408231407403946,0.0,-4581.7119140625,4168.34326171875,-15168.001953125,1143.3804931640625,-856.7435913085938,0.0,42.72929382324219,-3.121026039123535,-13.764687538146973
1731876438350.0,0.0,0.0,-20.0,0.0,0.0,0.0,0.0,0.0,0.0,0.0,0.0,0.0,0.0,0.0,0.0,-15.201826095581055,-16.365156173706055,8.542989730834961,0.15578685700893402,-0.11030344665050507,3.725290298461914e-09,-4616.3232421875,4122.15234375,-15170.1298828125,1169.939453125,-828.3648071289062,2.7976453566225246e-05,42.697784423828125,-3.163073778152466,-13.852579116821289
1731876438400.0,0.0,0.0,-20.0,0.0,0.0,0.0,0.0,0.0,0.0,0.0,0.0,0.0,0.0,0.0,0.0,-14.855364799499512,-16.600643157958984,8.608946800231934,0.16637276113033295,-0.0985337495803833,3.725290298461914e-09,-4680.89453125,4025.447509765625,-15176.3115234375,1249.438232421875,-739.9758911132812,2.7976453566225246e-05,42.63848876953125,-3.251893997192383,-14.01371955871582
1731876438417.0,0.0,0.0,-20.0,0.0,0.0,0.0,0.0,0.0,0.0,0.0,0.0,0.0,0.0,0.0,0.0,-14.673322677612305,-16.709829330444336,8.638983726501465,0.16984783113002777,-0.09451045840978622,1.1175870895385742e-08,-4710.80712890625,3974.94140625,-15180.3681640625,1275.5355224609375,-709.761474609375,8.392936433665454e-05,42.610801696777344,-3.2986466884613037,-14.086825370788574
1731876438433.0,0.0,0.0,-20.0,0.0,0.0,0.0,0.0,0.0,0.0,0.0,0.0,0.0,0.0,0.0,0.0,-14.486903190612793,-16.814638137817383,8.66745662689209,0.17322538793087006,-0.09051923453807831,-3.725290298461914e-09,-4739.50390625,3923.36767578125,-15184.853515625,1300.9005126953125,-679.7879028320312,-2.7976453566225246e-05,42.584110260009766,-3.346616268157959,-14.156051635742188
1731876438450.0,0.0,0.0,-20.0,0.0,0.0,0.0,0.0,0.0,0.0,0.0,0.0,0.0,0.0,0.0,0.0,-14.29621696472168,-16.915109634399414,8.694395065307617,0.17655520141124725,-0.0865030586719513,7.450580596923828e-09,-4766.9990234375,3870.750244140625,-15189.748046875,1325.906982421875,-649.6268920898438,5.595290713245049e-05,42.55842208862305,-3.39577317237854,-14.221445083618164
1731876438500.0,0.0,0.0,-20.0,0.0,0.0,0.0,0.0,0.0,0.0,0.0,0.0,0.0,0.0,0.0,0.0,-13.898186683654785,-17.098360061645508,8.742544174194336,0.18631866574287415,-0.07422563433647156,0.0,-4817.10888671875,3761.4541015625,-15201.39453125,1399.2293701171875,-557.425048828125,0.0,42.511329650878906,-3.498497724533081,-14.336917877197266
1731876438517.0,0.0,0.0,-20.0,0.0,0.0,0.0,0.0,0.0,0.0,0.0,0.0,0.0,0.0,0.0,0.0,-13.690936088562012,-17.18096351623535,8.763765335083008,0.1894473284482956,-0.07012036442756653,0.0,-4839.68017578125,3704.795654296875,-15208.138671875,1422.7252197265625,-526.594970703125,0.0,42.490013122558594,-3.552013635635376,-14.386874198913574
1731876438533.0,0.0,0.0,-20.0,0.0,0.0,0.0,0.0,0.0,0.0,0.0,0.0,0.0,0.0,0.0,0.0,-13.479694366455078,-17.259069442749023,8.783526420593262,0.19254621863365173,-0.06596537679433823,0.0,-4861.01416015625,3647.15869140625,-15215.2626953125,1445.99755859375,-495.39154052734375,0.0,42.46979904174805,-3.606612205505371,-14.432888984680176
1731876438550.0,0.0,0.0,-20.0,0.0,0.0,0.0,0.0,0.0,0.0,0.0,0.0,0.0,0.0,0.0,0.0,-13.264497756958008,-17.332611083984375,8.801836967468262,0.19558021426200867,-0.06180720031261444,-3.725290298461914e-09,-4881.09228515625,3588.5517578125,-15222.76953125,1468.782470703125,-464.1641845703125,-2.7976453566225246e-05,42.45073318481445,-3.662273406982422,-14.474909782409668
1731876438600.0,0.0,0.0,-20.0,0.0,0.0,0.0,0.0,0.0,0.0,0.0,0.0,0.0,0.0,0.0,0.0,-12.818864822387695,-17.46129608154297,8.833097457885742,0.20432189106941223,-0.04928065463900566,0.0,-4916.20751953125,3467.604736328125,-15239.4921875,1534.4312744140625,-370.0914306640625,0.0,42.41728210449219,-3.7775051593780518,-14.543205261230469
1731876438616.0,0.0,0.0,-20.0,0.0,0.0,0.0,0.0,0.0,0.0,0.0,0.0,0.0,0.0,0.0,0.0,-12.588641166687012,-17.51638412475586,8.846118927001953,0.20710384845733643,-0.045107401907444,-7.450580596923828e-09,-4931.232421875,3405.309814453125,-15248.6826171875,1555.323486328125,-338.7508239746094,-5.595290713245049e-05,42.40293502807617,-3.8369898796081543,-14.569448471069336
1731876438633.0,0.0,0.0,-20.0,0.0,0.0,0.0,0.0,0.0,0.0,0.0,0.0,0.0,0.0,0.0,0.0,-12.354846000671387,-17.566856384277344,8.85782527923584,0.2098894715309143,-0.04082874953746796,0.0,-4944.99365234375,3342.12890625,-15258.19921875,1576.2431640625,-306.6186828613281,0.0,42.389774322509766,-3.897383213043213,-14.591678619384766
1731876438650.0,0.0,0.0,-20.0,0.0,0.0,0.0,0.0,0.0,0.0,0.0,0.0,0.0,0.0,0.0,0.0,-12.117474555969238,-17.612579345703125,8.8682279586792,0.21262529492378235,-0.03652295470237732,0.0,-4957.45703125,3278.0576171875,-15268.0517578125,1596.788818359375,-274.28271484375,0.0,42.37785720825195,-3.9586737155914307,-14.6097993850708
1731876438683.0,0.0,0.0,-20.0,0.0,0.0,0.0,0.0,0.0,0.0,0.0,0.0,0.0,0.0,0.0,0.0,-11.876588821411133,-17.653514862060547,8.87735652923584,0.21780194342136383,-0.02806882932782173,0.0,-4968.61279296875,3213.108642578125,-15278.2294921875,1635.664794921875,-210.79331970214844,0.0,42.36717987060547,-4.020832061767578,-14.623783111572266
1731876438717.0,0.0,0.0,-20.0,0.0,0.0,0.0,0.0,0.0,0.0,0.0,0.0,0.0,0.0,0.0,0.0,-11.378313064575195,-17.711658477783203,8.889925956726074,0.22280243039131165,-0.019474253058433533,0.0,-4984.45361328125,3079.12451171875,-15300.642578125,1673.2177734375,-146.2491455078125,0.0,42.352020263671875,-4.1490278244018555,-14.631874084472656
1731876438733.0,0.0,0.0,-20.0,0.0,0.0,0.0,0.0,0.0,0.0,0.0,0.0,0.0,0.0,0.0,0.0,-11.12439250946045,-17.73354721069336,8.894495964050293,0.225161612033844,-0.015254484489560127,7.450580596923828e-09,-4990.416015625,3010.918212890625,-15312.2685546875,1690.9349365234375,-114.5592269897461,5.595290713245049e-05,42.3463249206543,-4.214221954345703,-14.629735946655273
1731876438750.0,0.0,0.0,-20.0,0.0,0.0,0.0,0.0,0.0,0.0,0.0,0.0,0.0,0.0,0.0,0.0,-10.86744213104248,-17.750703811645508,8.897997856140137,0.22751064598560333,-0.01093634869903326,7.450580596923828e-09,-4995.0888671875,2941.9365234375,-15324.1484375,1708.575927734375,-82.13058471679688,5.595290713245049e-05,42.341861724853516,-4.280090808868408,-14.623528480529785
1731876438783.0,0.0,0.0,-20.0,0.0,0.0,0.0,0.0,0.0,0.0,0.0,0.0,0.0,0.0,0.0,0.0,-10.607481002807617,-17.763017654418945,8.900447845458984,0.23197606205940247,-0.002370668575167656,0.0,-4998.44189453125,2872.180419921875,-15336.2841796875,1742.110595703125,-17.80341911315918,0.0,42.33866500854492,-4.3466057777404785,-14.613161087036133
1731876438800.0,0.0,0.0,-20.0,0.0,0.0,0.0,0.0,0.0,0.0,0.0,0.0,0.0,0.0,0.0,0.0,-10.341815948486328,-17.765689849853516,8.900965690612793,0.23410893976688385,0.0019058827310800552,7.450580596923828e-09,-4999.16943359375,2800.99755859375,-15349.2080078125,1758.1282958984375,14.312935829162598,5.595290713245049e-05,42.33797073364258,-4.414361476898193,-14.594844818115234
1731876438833.0,0.0,0.0,-20.0,0.0,0.0,0.0,0.0,0.0,0.0,0.0,0.0,0.0,0.0,0.0,0.0,-9.802351951599121,-17.756492614746094,8.899263381958008,0.2382168024778366,0.010534795001149178,7.450580596923828e-09,-4996.6650390625,2656.492919921875,-15375.689453125,1788.977783203125,79.1149673461914,5.595290713245049e-05,42.3403434753418,-4.551424503326416,-14.5457763671875
1731876438833.0,0.0,0.0,-20.0,0.0,0.0,0.0,0.0,0.0,0.0,0.0,0.0,0.0,0.0,0.0,0.0,-9.802351951599121,-17.756492614746094,8.899263381958008,0.2382168024778366,0.010534795001149178,7.450580596923828e-09,-4996.6650390625,2656.492919921875,-15375.689453125,1788.977783203125,79.1149673461914,5.595290713245049e-05,42.3403434753418,-4.551424503326416,-14.5457763671875
1731876438883.0,0.0,0.0,-20.0,0.0,0.0,0.0,0.0,0.0,0.0,0.0,0.0,0.0,0.0,0.0,0.0,-9.252647399902344,-17.72785186767578,8.8942289352417,0.2438790500164032,0.02346077188849449,0.0,-4988.86474609375,2509.257568359375,-15402.93359375,1831.50048828125,176.18739318847656,0.0,42.34770202636719,-4.690286159515381,-14.480106353759766
1731876438900.0,0.0,0.0,-20.0,0.0,0.0,0.0,0.0,0.0,0.0,0.0,0.0,0.0,0.0,0.0,0.0,-8.971821784973145,-17.70130729675293,8.889758110046387,0.24562588334083557,0.027747435495257378,7.450580596923828e-09,-4981.6337890625,2434.093017578125,-15417.3251953125,1844.6190185546875,208.37969970703125,5.595290713245049e-05,42.35448455810547,-4.760807514190674,-14.43718433380127
1731876438917.0,0.0,0.0,-20.0,0.0,0.0,0.0,0.0,0.0,0.0,0.0,0.0,0.0,0.0,0.0,0.0,-8.688799858093262,-17.669889450073242,8.884635925292969,0.24729202687740326,0.03199514001607895,7.450580596923828e-09,-4973.07470703125,2358.319580078125,-15431.861328125,1857.131591796875,240.2794189453125,5.595290713245049e-05,42.362483978271484,-4.831615447998047,-14.390116691589355
1731876438933.0,0.0,0.0,-20.0,0.0,0.0,0.0,0.0,0.0,0.0,0.0,0.0,0.0,0.0,0.0,0.0,-8.403688430786133,-17.63362693786621,8.878918647766113,0.24889002740383148,0.03623402863740921,-7.450580596923828e-09,-4963.193359375,2281.958984375,-15446.515625,1869.13232421875,272.1129150390625,-5.595290713245049e-05,42.37167739868164,-4.9026618003845215,-14.3389310836792
1731876438950.0,0.0,0.0,-20.0,0.0,0.0,0.0,0.0,0.0,0.0,0.0,0.0,0.0,0.0,0.0,0.0,-8.116588592529297,-17.592540740966797,8.872658729553223,0.25043588876724243,0.04050951451063156,0.0,-4951.9951171875,2205.032470703125,-15461.2763671875,1880.7415771484375,304.2212829589844,0.0,42.382049560546875,-4.973898887634277,-14.283641815185547
1731876439000.0,0.0,0.0,-20.0,0.0,0.0,0.0,0.0,0.0,0.0,0.0,0.0,0.0,0.0,0.0,0.0,-7.534941673278809,-17.490947723388672,8.858038902282715,0.2546297311782837,0.05320114642381668,0.0,-4924.294921875,2049.1123046875,-15491.54296875,1912.23681640625,399.5338134765625,0.0,42.40749740600586,-5.117183208465576,-14.156930923461914
1731876439017.0,0.0,0.0,-20.0,0.0,0.0,0.0,0.0,0.0,0.0,0.0,0.0,0.0,0.0,0.0,0.0,-7.240692138671875,-17.43048667907715,8.849822044372559,0.25588759779930115,0.05740867555141449,-7.450580596923828e-09,-4907.802734375,1970.1806640625,-15507.0087890625,1921.6832275390625,431.1318359375,-5.595290713245049e-05,42.422523498535156,-5.189098358154297,-14.085556030273438
1731876439034.0,0.0,0.0,-20.0,0.0,0.0,0.0,0.0,0.0,0.0,0.0,0.0,0.0,0.0,0.0,0.0,-6.944921493530273,-17.36520767211914,8.841309547424316,0.2570696771144867,0.06158491224050522,-7.450580596923828e-09,-4889.98974609375,1890.7802734375,-15522.5126953125,1930.5604248046875,462.49481201171875,-5.595290713245049e-05,42.43865203857422,-5.260990619659424,-14.010099411010742
1731876439050.0,0.0,0.0,-20.0,0.0,0.0,0.0,0.0,0.0,0.0,0.0,0.0,0.0,0.0,0.0,0.0,-6.647735118865967,-17.295133590698242,8.832560539245605,0.2581843435764313,0.06575923413038254,7.450580596923828e-09,-4870.861328125,1810.9324951171875,-15538.0390625,1938.931396484375,493.84344482421875,5.595290713245049e-05,42.45586013793945,-5.332818031311035,-13.930583953857422
1731876439100.0,0.0,0.0,-20.0,0.0,0.0,0.0,0.0,0.0,0.0,0.0,0.0,0.0,0.0,0.0,0.0,-6.048227787017822,-17.135883331298828,8.814038276672363,0.2610907554626465,0.07815221697092056,-7.450580596923828e-09,-4827.36279296875,1649.6759033203125,-15569.541015625,1960.7581787109375,586.9131469726562,-5.595290713245049e-05,42.494571685791016,-5.4763593673706055,-13.755764961242676
1731876439117.0,0.0,0.0,-20.0,0.0,0.0,0.0,0.0,0.0,0.0,0.0,0.0,0.0,0.0,0.0,0.0,-5.746211528778076,-17.046802520751953,8.804410934448242,0.2619094252586365,0.0822163075208664,-7.450580596923828e-09,-4803.01513671875,1568.3330078125,-15585.46875,1966.9063720703125,617.4339599609375,-5.595290713245049e-05,42.515995025634766,-5.547939300537109,-13.660544395446777
1731876439134.0,0.0,0.0,-20.0,0.0,0.0,0.0,0.0,0.0,0.0,0.0,0.0,0.0,0.0,0.0,0.0,-5.443276882171631,-16.953039169311523,8.794806480407715,0.2626585364341736,0.08627255260944366,1.4901161193847656e-08,-4777.37451171875,1486.6517333984375,-15601.3466796875,1972.5321044921875,647.8958740234375,0.00011190581426490098,42.53837585449219,-5.619236946105957,-13.561369895935059
1731876439150.0,0.0,0.0,-20.0,0.0,0.0,0.0,0.0,0.0,0.0,0.0,0.0,0.0,0.0,0.0,0.0,-5.139522075653076,-16.854598999023438,8.7852783203125,0.26333704590797424,0.09031954407691956,0.0,-4750.44140625,1404.653564453125,-15617.1611328125,1977.6275634765625,678.2882690429688,0.0,42.56168746948242,-5.690206050872803,-13.458244323730469
1731876439201.0,0.0,0.0,-20.0,0.0,0.0,0.0,0.0,0.0,0.0,0.0,0.0,0.0,0.0,0.0,0.0,-4.529223442077637,-16.639196395874023,8.766278266906738,0.26492851972579956,0.10229011625051498,-7.450580596923828e-09,-4691.45849609375,1239.6287841796875,-15648.9287109375,1989.579345703125,768.1857299804688,-5.595290713245049e-05,42.61204528808594,-5.831122875213623,-13.236756324768066
1731876439217.0,0.0,0.0,-20.0,0.0,0.0,0.0,0.0,0.0,0.0,0.0,0.0,0.0,0.0,0.0,0.0,-4.2229743003845215,-16.522321701049805,8.756945610046387,0.26531046628952026,0.10621516406536102,-7.450580596923828e-09,-4659.42724609375,1156.6695556640625,-15664.841796875,1992.44775390625,797.6622924804688,-5.595290713245049e-05,42.638999938964844,-5.900945663452148,-13.11846923828125
1731876439234.0,0.0,0.0,-20.0,0.0,0.0,0.0,0.0,0.0,0.0,0.0,0.0,0.0,0.0,0.0,0.0,-3.916398048400879,-16.400917053222656,8.747939109802246,0.26561784744262695,0.11009649932384491,0.0,-4626.1337890625,1073.5064697265625,-15680.6220703125,1994.756103515625,826.8106689453125,0.0,42.66674041748047,-5.970231056213379,-12.996366500854492
1731876439251.0,0.0,0.0,-20.0,0.0,0.0,0.0,0.0,0.0,0.0,0.0,0.0,0.0,0.0,0.0,0.0,-3.609595775604248,-16.275028228759766,8.739311218261719,0.2658606171607971,0.11411668360233307,-7.450580596923828e-09,-4591.5888671875,990.1637573242188,-15696.2529296875,1996.5792236328125,857.001708984375,-5.595290713245049e-05,42.695220947265625,-6.038939476013184,-12.870487213134766
1731876439284.0,0.0,0.0,-20.0,0.0,0.0,0.0,0.0,0.0,0.0,0.0,0.0,0.0,0.0,0.0,0.0,-3.302649974822998,-16.144498825073242,8.731101036071777,0.26610273122787476,0.1217343881726265,7.450580596923828e-09,-4555.74755859375,906.6619873046875,-15711.734375,1998.3975830078125,914.209716796875,5.595290713245049e-05,42.72444152832031,-6.107028961181641,-12.74071979522705
1731876439318.0,0.0,0.0,-20.0,0.0,0.0,0.0,0.0,0.0,0.0,0.0,0.0,0.0,0.0,0.0,0.0,-2.688530921936035,-15.861595153808594,8.715710639953613,0.2660493552684784,0.1292581856250763,7.450580596923828e-09,-4477.9853515625,739.2545776367188,-15742.8271484375,1997.9967041015625,970.7124633789062,5.595290713245049e-05,42.7867546081543,-6.241180419921875,-12.46359920501709
1731876439334.0,0.0,0.0,-20.0,0.0,0.0,0.0,0.0,0.0,0.0,0.0,0.0,0.0,0.0,0.0,0.0,-2.3818085193634033,-15.71362018585205,8.708902359008789,0.26591360569000244,0.1329125463962555,0.0,-4437.26708984375,655.4465942382812,-15758.0615234375,1996.9771728515625,998.15625,0.0,42.818790435791016,-6.3071160316467285,-12.319560050964355
1731876439351.0,0.0,0.0,-20.0,0.0,0.0,0.0,0.0,0.0,0.0,0.0,0.0,0.0,0.0,0.0,0.0,-2.0754358768463135,-15.561429977416992,8.702751159667969,0.26569923758506775,0.13662412762641907,7.450580596923828e-09,-4395.3583984375,571.6007690429688,-15773.064453125,1995.3673095703125,1026.02978515625,5.595290713245049e-05,42.85134506225586,-6.372241497039795,-12.171977043151855
1731876439385.0,0.0,0.0,-20.0,0.0,0.0,0.0,0.0,0.0,0.0,0.0,0.0,0.0,0.0,0.0,0.0,-1.7695118188858032,-15.404958724975586,8.697301864624023,0.26505592465400696,0.1438116431236267,3.725290298461914e-09,-4352.23828125,487.7433776855469,-15787.8310546875,1990.5361328125,1080.007080078125,2.7976453566225246e-05,42.884395599365234,-6.436522483825684,-12.020809173583984
1731876439418.0,0.0,0.0,-20.0,0.0,0.0,0.0,0.0,0.0,0.0,0.0,0.0,0.0,0.0,0.0,0.0,-1.1602199077606201,-15.071431159973145,8.688472747802734,0.26411139965057373,0.15089106559753418,0.0,-4260.2177734375,320.3363952636719,-15817.185546875,1983.44287109375,1133.172607421875,0.0,42.953468322753906,-6.562185764312744,-11.702033042907715
1731876439435.0,0.0,0.0,-20.0,0.0,0.0,0.0,0.0,0.0,0.0,0.0,0.0,0.0,0.0,0.0,0.0,-0.8567556738853455,-14.898550033569336,8.685322761535645,0.263535737991333,0.15432369709014893,3.725290298461914e-09,-4212.462890625,236.74847412109375,-15831.4423828125,1979.1197509765625,1158.9512939453125,2.7976453566225246e-05,42.988529205322266,-6.623566150665283,-11.537527084350586
1731876439451.0,0.0,0.0,-20.0,0.0,0.0,0.0,0.0,0.0,0.0,0.0,0.0,0.0,0.0,0.0,0.0,-0.5541900396347046,-14.721719741821289,8.68307113647461,0.26288801431655884,0.1577140837907791,3.725290298461914e-09,-4163.57763671875,153.26844787597656,-15845.396484375,1974.25537109375,1184.41259765625,2.7976453566225246e-05,43.02388381958008,-6.683934688568115,-11.369720458984375
1731876439484.0,0.0,0.0,-20.0,0.0,0.0,0.0,0.0,0.0,0.0,0.0,0.0,0.0,0.0,0.0,0.0,-0.2526102364063263,-14.540998458862305,8.681756973266602,0.2613708972930908,0.1643887162208557,-3.725290298461914e-09,-4113.57568359375,69.92105102539062,-15859.037109375,1962.862060546875,1234.5382080078125,-2.7976453566225246e-05,43.059478759765625,-6.7432661056518555,-11.19865608215332
1731876439500.0,0.0,0.0,-20.0,0.0,0.0,0.0,0.0,0.0,0.0,0.0,0.0,0.0,0.0,0.0,0.0,0.0469970703125,-14.352624893188477,8.681406021118164,0.2605306804180145,0.16756296157836914,0.0,-4061.411865234375,-13.019580841064453,-15872.625,1956.5521240234375,1258.37646484375,0.0,43.09600067138672,-6.801342964172363,-11.021621704101562
1731876439534.0,0.0,0.0,-20.0,0.0,0.0,0.0,0.0,0.0,0.0,0.0,0.0,0.0,0.0,0.0,0.0,0.642425537109375,-13.964913368225098,8.68382453918457,0.2585594058036804,0.17404700815677643,0.0,-3953.912353515625,-178.2712860107422,-15898.7490234375,1941.7481689453125,1307.07080078125,0.0,43.16935348510742,-6.914117813110352,-10.658401489257812
1731876439534.0,0.0,0.0,-20.0,0.0,0.0,0.0,0.0,0.0,0.0,0.0,0.0,0.0,0.0,0.0,0.0,0.642425537109375,-13.964913368225098,8.68382453918457,0.2585594058036804,0.17404700815677643,0.0,-3953.912353515625,-178.2712860107422,-15898.7490234375,1941.7481689453125,1307.07080078125,0.0,43.16935348510742,-6.914117813110352,-10.658401489257812
1731876439584.0,0.0,0.0,-20.0,0.0,0.0,0.0,0.0,0.0,0.0,0.0,0.0,0.0,0.0,0.0,0.0,1.232147216796875,-13.562498092651367,8.690614700317383,0.25508978962898254,0.18331894278526306,0.0,-3842.144775390625,-342.48687744140625,-15923.4443359375,1915.6917724609375,1376.701904296875,0.0,43.24290466308594,-7.022193431854248,-10.282981872558594
1731876439601.0,0.0,0.0,-20.0,0.0,0.0,0.0,0.0,0.0,0.0,0.0,0.0,0.0,0.0,0.0,0.0,1.52325439453125,-13.35248851776123,8.695806503295898,0.25378623604774475,0.18631979823112488,0.0,-3783.740234375,-423.75714111328125,-15935.4697265625,1905.9022216796875,1399.2379150390625,0.0,43.28025436401367,-7.074158191680908,-10.088406562805176
1731876439618.0,0.0,0.0,-20.0,0.0,0.0,0.0,0.0,0.0,0.0,0.0,0.0,0.0,0.0,0.0,0.0,1.812591552734375,-13.139071464538574,8.702191352844238,0.2524065673351288,0.18927918374538422,-3.725290298461914e-09,-3724.3359375,-504.666015625,-15947.1025390625,1895.5411376953125,1421.4625244140625,-2.7976453566225246e-05,43.31747817993164,-7.124861240386963,-9.891023635864258
1731876439634.0,0.0,0.0,-20.0,0.0,0.0,0.0,0.0,0.0,0.0,0.0,0.0,0.0,0.0,0.0,0.0,2.100128173828125,-12.922301292419434,8.70979118347168,0.2509828209877014,0.19213292002677917,0.0,-3663.945556640625,-585.201416015625,-15958.3359375,1884.848876953125,1442.8936767578125,0.0,43.35454559326172,-7.174288749694824,-9.690878868103027
1731876439651.0,0.0,0.0,-20.0,0.0,0.0,0.0,0.0,0.0,0.0,0.0,0.0,0.0,0.0,0.0,0.0,2.385772705078125,-12.702303886413574,8.718628883361816,0.24949093163013458,0.19493445754051208,0.0,-3602.602783203125,-665.333740234375,-15969.158203125,1873.64501953125,1463.932861328125,0.0,43.39139175415039,-7.2224249839782715,-9.488078117370605
1731876439701.0,0.0,0.0,-20.0,0.0,0.0,0.0,0.0,0.0,0.0,0.0,0.0,0.0,0.0,0.0,0.0,2.94915771484375,-12.249677658081055,8.740250587463379,0.2445271611213684,0.20314425230026245,-3.725290298461914e-09,-3476.22900390625,-823.76123046875,-15989.7685546875,1836.3677978515625,1525.58740234375,-2.7976453566225246e-05,43.46478271484375,-7.314453125,-9.072563171386719
1731876439717.0,0.0,0.0,-20.0,0.0,0.0,0.0,0.0,0.0,0.0,0.0,0.0,0.0,0.0,0.0,0.0,3.2266845703125,-12.017230033874512,8.753077507019043,0.2427503764629364,0.2057458460330963,-7.450580596923828e-09,-3411.244384765625,-901.9880981445312,-15999.541015625,1823.0242919921875,1545.125,-5.595290713245049e-05,43.5012092590332,-7.358306407928467,-8.860013961791992
1731876439734.0,0.0,0.0,-20.0,0.0,0.0,0.0,0.0,0.0,0.0,0.0,0.0,0.0,0.0,0.0,0.0,3.501922607421875,-11.781868934631348,8.767215728759766,0.2408859133720398,0.2083185613155365,0.0,-3345.387939453125,-979.6838989257812,-16008.8740234375,1809.0224609375,1564.44580078125,0.0,43.537227630615234,-7.400796890258789,-8.645110130310059
1731876439751.0,0.0,0.0,-20.0,0.0,0.0,0.0,0.0,0.0,0.0,0.0,0.0,0.0,0.0,0.0,0.0,3.77484130859375,-11.543635368347168,8.782684326171875,0.23898229002952576,0.21079635620117188,0.0,-3278.67041015625,-1056.834716796875,-16017.7666015625,1794.7264404296875,1583.0537109375,0.0,43.572792053222656,-7.441924571990967,-8.427887916564941
1731876439784.0,0.0,0.0,-20.0,0.0,0.0,0.0,0.0,0.0,0.0,0.0,0.0,0.0,0.0,0.0,0.0,4.04534912109375,-11.302642822265625,8.799488067626953,0.2349335104227066,0.21563000977039337,3.725290298461914e-09,-3211.122802734375,-1133.4095458984375,-16026.21484375,1764.3206787109375,1619.3538818359375,2.7976453566225246e-05,43.60786437988281,-7.481679439544678,-8.208452224731445
1731876439817.0,0.0,0.0,-20.0,0.0,0.0,0.0,0.0,0.0,0.0,0.0,0.0,0.0,0.0,0.0,0.0,4.5740966796875,-10.80721664428711,8.837542533874512,0.23063819110393524,0.2202061116695404,0.0,-3072.08251953125,-1283.4215087890625,-16042.150390625,1732.0633544921875,1653.7197265625,0.0,43.67709732055664,-7.556385517120361,-7.7596588134765625
1731876439834.0,0.0,0.0,-20.0,0.0,0.0,0.0,0.0,0.0,0.0,0.0,0.0,0.0,0.0,0.0,0.0,4.83447265625,-10.555727005004883,8.858601570129395,0.22840246558189392,0.22239483892917633,3.725290298461914e-09,-3001.414306640625,-1357.43359375,-16049.43359375,1715.2733154296875,1670.1568603515625,2.7976453566225246e-05,43.71076965332031,-7.591653347015381,-7.532288074493408
1731876439851.0,0.0,0.0,-20.0,0.0,0.0,0.0,0.0,0.0,0.0,0.0,0.0,0.0,0.0,0.0,0.0,5.092132568359375,-10.301837921142578,8.881020545959473,0.22610387206077576,0.22452226281166077,3.725290298461914e-09,-2930.012451171875,-1430.7606201171875,-16056.2568359375,1698.01123046875,1686.133544921875,2.7976453566225246e-05,43.74376678466797,-7.6255364418029785,-7.303038120269775
1731876439884.0,0.0,0.0,-20.0,0.0,0.0,0.0,0.0,0.0,0.0,0.0,0.0,0.0,0.0,0.0,0.0,5.3470458984375,-10.045622825622559,8.904800415039062,0.22126618027687073,0.22863438725471497,3.725290298461914e-09,-2857.898681640625,-1503.3875732421875,-16062.6171875,1661.6807861328125,1717.0150146484375,2.7976453566225246e-05,43.776039123535156,-7.658040523529053,-7.0719780921936035
1731876439901.0,0.0,0.0,-20.0,0.0,0.0,0.0,0.0,0.0,0.0,0.0,0.0,0.0,0.0,0.0,0.0,5.596221923828125,-9.784820556640625,8.930161476135254,0.2187812626361847,0.2305731326341629,0.0,-2784.43505859375,-1574.48095703125,-16068.7080078125,1643.019287109375,1731.5748291015625,0.0,43.807838439941406,-7.688817024230957,-6.837773323059082
1731876439934.0,0.0,0.0,-20.0,0.0,0.0,0.0,0.0,0.0,0.0,0.0,0.0,0.0,0.0,0.0,0.0,6.085662841796875,-9.256994247436523,8.984922409057617,0.21363118290901184,0.23425935208797455,-3.725290298461914e-09,-2635.580322265625,-1714.3330078125,-16079.4970703125,1604.3428955078125,1759.2578125,-2.7976453566225246e-05,43.86897277832031,-7.746259689331055,-6.364659309387207
1731876439934.0,0.0,0.0,-20.0,0.0,0.0,0.0,0.0,0.0,0.0,0.0,0.0,0.0,0.0,0.0,0.0,6.085662841796875,-9.256994247436523,8.984922409057617,0.21363118290901184,0.23425935208797455,-3.725290298461914e-09,-2635.580322265625,-1714.3330078125,-16079.4970703125,1604.3428955078125,1759.2578125,-2.7976453566225246e-05,43.86897277832031,-7.746259689331055,-6.364659309387207
1731876439984.0,0.0,0.0,-20.0,0.0,0.0,0.0,0.0,0.0,0.0,0.0,0.0,0.0,0.0,0.0,0.0,6.562744140625,-8.721341133117676,9.045039176940918,0.20541474223136902,0.23933248221874237,0.0,-2484.28955078125,-1850.8958740234375,-16088.4404296875,1542.638427734375,1797.3563232421875,0.0,43.92658233642578,-7.798276424407959,-5.8857502937316895
1731876440001.0,0.0,0.0,-20.0,0.0,0.0,0.0,0.0,0.0,0.0,0.0,0.0,0.0,0.0,0.0,0.0,6.7933349609375,-8.44894790649414,9.077293395996094,0.20254619419574738,0.24089795351028442,3.725290298461914e-09,-2407.270263671875,-1917.0050048828125,-16092.408203125,1521.0960693359375,1809.1129150390625,2.7976453566225246e-05,43.95417785644531,-7.82196044921875,-5.64333438873291
1731876440017.0,0.0,0.0,-20.0,0.0,0.0,0.0,0.0,0.0,0.0,0.0,0.0,0.0,0.0,0.0,0.0,7.02056884765625,-8.174901962280273,9.11084270477295,0.19965282082557678,0.24237968027591705,0.0,-2329.728759765625,-1982.1966552734375,-16095.921875,1499.3671875,1820.240478515625,0.0,43.980777740478516,-7.844326019287109,-5.399770736694336
1731876440034.0,0.0,0.0,-20.0,0.0,0.0,0.0,0.0,0.0,0.0,0.0,0.0,0.0,0.0,0.0,0.0,7.244476318359375,-7.899303436279297,9.145670890808105,0.19668254256248474,0.2438047230243683,1.862645149230957e-09,-2251.6943359375,-2046.47216796875,-16098.9833984375,1477.060791015625,1830.9423828125,1.3988226783112623e-05,44.00636291503906,-7.865398406982422,-5.155141830444336
1731876440051.0,0.0,0.0,-20.0,0.0,0.0,0.0,0.0,0.0,0.0,0.0,0.0,0.0,0.0,0.0,0.0,7.464996337890625,-7.622222900390625,9.181767463684082,0.1936572939157486,0.24516159296035767,0.0,-2173.1875,-2109.808837890625,-16101.595703125,1454.341552734375,1841.1322021484375,0.0,44.03089904785156,-7.885196208953857,-4.909521579742432
1731876440101.0,0.0,0.0,-20.0,0.0,0.0,0.0,0.0,0.0,0.0,0.0,0.0,0.0,0.0,0.0,0.0,7.892059326171875,-7.062577724456787,9.257866859436035,0.18435370922088623,0.24878674745559692,-3.725290298461914e-09,-2014.4671630859375,-2232.5732421875,-16105.6826171875,1384.4727783203125,1868.356689453125,-2.7976453566225246e-05,44.07685089111328,-7.920756816864014,-4.415069103240967
1731876440117.0,0.0,0.0,-20.0,0.0,0.0,0.0,0.0,0.0,0.0,0.0,0.0,0.0,0.0,0.0,0.0,8.0985107421875,-6.780261516571045,9.297811508178711,0.18110662698745728,0.2498731017112732,-2.7939677238464355e-09,-1934.326171875,-2291.9619140625,-16107.1630859375,1360.087646484375,1876.51513671875,-2.0982341084163636e-05,44.098201751708984,-7.936577796936035,-4.166466236114502
1731876440134.0,0.0,0.0,-20.0,0.0,0.0,0.0,0.0,0.0,0.0,0.0,0.0,0.0,0.0,0.0,0.0,8.30126953125,-6.496855735778809,9.338926315307617,0.17778433859348297,0.25089624524116516,-4.6566128730773926e-09,-1853.828125,-2350.300537109375,-16108.224609375,1335.1376953125,1884.19873046875,-3.497056968626566e-05,44.11840057373047,-7.951216697692871,-3.917264938354492
1731876440151.0,0.0,0.0,-20.0,0.0,0.0,0.0,0.0,0.0,0.0,0.0,0.0,0.0,0.0,0.0,0.0,8.500335693359375,-6.212433815002441,9.381189346313477,0.17444802820682526,0.25183767080307007,0.0,-1772.9962158203125,-2407.58251953125,-16108.86328125,1310.0823974609375,1891.268798828125,0.0,44.13743209838867,-7.964702129364014,-3.667534589767456
1731876440184.0,0.0,0.0,-20.0,0.0,0.0,0.0,0.0,0.0,0.0,0.0,0.0,0.0,0.0,0.0,0.0,8.695648193359375,-5.927091598510742,9.424577713012695,0.16768045723438263,0.2534979283809662,1.862645149230957e-09,-1691.8587646484375,-2463.785400390625,-16109.0927734375,1259.2587890625,1903.737060546875,1.3988226783112623e-05,44.1552734375,-7.977061748504639,-3.4173693656921387
1731876440201.0,0.0,0.0,-20.0,0.0,0.0,0.0,0.0,0.0,0.0,0.0,0.0,0.0,0.0,0.0,0.0,8.88330078125,-5.640016555786133,9.469189643859863,0.16417571902275085,0.2542335093021393,9.313225746154785e-10,-1610.1861572265625,-2517.809326171875,-16109.1103515625,1232.938720703125,1909.26123046875,6.994113391556311e-06,44.17196273803711,-7.988101005554199,-3.1666908264160156
1731876440235.0,0.0,0.0,-20.0,0.0,0.0,0.0,0.0,0.0,0.0,0.0,0.0,0.0,0.0,0.0,0.0,9.246917724609375,-5.063889980316162,9.561524391174316,0.1570800244808197,0.25547999143600464,-4.190951585769653e-09,-1446.1590576171875,-2622.46044921875,-16107.97265625,1179.65087890625,1918.6220703125,-3.1473511626245454e-05,44.20165252685547,-8.00705337524414,-2.664794683456421
1731876440235.0,0.0,0.0,-20.0,0.0,0.0,0.0,0.0,0.0,0.0,0.0,0.0,0.0,0.0,0.0,0.0,9.246917724609375,-5.063889980316162,9.561524391174316,0.1570800244808197,0.25547999143600464,-4.190951585769653e-09,-1446.1590576171875,-2622.46044921875,-16107.97265625,1179.65087890625,1918.6220703125,-3.1473511626245454e-05,44.20165252685547,-8.00705337524414,-2.664794683456421
1731876440285.0,0.0,0.0,-20.0,0.0,0.0,0.0,0.0,0.0,0.0,0.0,0.0,0.0,0.0,0.0,0.0,9.594757080078125,-4.485687732696533,9.657807350158691,0.14612308144569397,0.25681227445602417,7.916241884231567e-09,-1281.393798828125,-2722.49609375,-16105.3251953125,1097.36572265625,1928.6273193359375,5.94499651924707e-05,44.226341247558594,-8.022052764892578,-2.16272234916687
1731876440301.0,0.0,0.0,-20.0,0.0,0.0,0.0,0.0,0.0,0.0,0.0,0.0,0.0,0.0,0.0,0.0,9.7584228515625,-4.1955885887146,9.707413673400879,0.14243820309638977,0.257109671831131,9.778887033462524e-09,-1198.6766357421875,-2769.553955078125,-16103.6708984375,1069.6927490234375,1930.86083984375,7.343819015659392e-05,44.23680877685547,-8.028005599975586,-1.9120877981185913
1731876440334.0,0.0,0.0,-20.0,0.0,0.0,0.0,0.0,0.0,0.0,0.0,0.0,0.0,0.0,0.0,0.0,10.073577880859375,-3.614879846572876,9.809179306030273,0.13485534489154816,0.2574980854988098,-7.450580596923828e-09,-1033.0064697265625,-2860.068115234375,-16099.3291015625,1012.7463989257812,1933.7777099609375,-5.595290713245049e-05,44.253902435302734,-8.037358283996582,-1.4116851091384888
1731876440334.0,0.0,0.0,-20.0,0.0,0.0,0.0,0.0,0.0,0.0,0.0,0.0,0.0,0.0,0.0,0.0,10.073577880859375,-3.614879846572876,9.809179306030273,0.13485534489154816,0.2574980854988098,-7.450580596923828e-09,-1033.0064697265625,-2860.068115234375,-16099.3291015625,1012.7463989257812,1933.7777099609375,-5.595290713245049e-05,44.253902435302734,-8.037358283996582,-1.4116851091384888
1731876440385.0,0.0,0.0,-20.0,0.0,0.0,0.0,0.0,0.0,0.0,0.0,0.0,0.0,0.0,0.0,0.0,10.372161865234375,-3.034011125564575,9.914121627807617,0.12316596508026123,0.25754162669181824,3.6088749766349792e-09,-867.1844482421875,-2945.660888671875,-16093.6796875,924.960693359375,1934.104736328125,2.7102190870209597e-05,44.265872955322266,-8.043547630310059,-0.9129743576049805
1731876440401.0,0.0,0.0,-20.0,0.0,0.0,0.0,0.0,0.0,0.0,0.0,0.0,0.0,0.0,0.0,0.0,10.5106201171875,-2.743777275085449,9.967672348022461,0.11921833455562592,0.2574126124382019,3.14321368932724e-09,-784.2963256835938,-2985.306640625,-16090.6279296875,895.314453125,1933.1358642578125,2.360513281018939e-05,44.26993942260742,-8.045490264892578,-0.6651385426521301
1731876440418.0,0.0,0.0,-20.0,0.0,0.0,0.0,0.0,0.0,0.0,0.0,0.0,0.0,0.0,0.0,0.0,10.644775390625,-2.4538166522979736,10.02187728881836,0.11522296816110611,0.2572111189365387,3.6088749766349792e-09,-701.466064453125,-3023.668212890625,-16087.287109375,865.3097534179688,1931.6226806640625,2.7102190870209597e-05,44.272727966308594,-8.046782493591309,-0.41803300380706787
1731876440435.0,0.0,0.0,-20.0,0.0,0.0,0.0,0.0,0.0,0.0,0.0,0.0,0.0,0.0,0.0,0.0,10.77459716796875,-2.16420841217041,10.076692581176758,0.11122487485408783,0.2569400668144226,3.958120942115784e-09,-618.718505859375,-3060.73486328125,-16083.673828125,835.2846069335938,1929.5870361328125,2.972498259623535e-05,44.27424621582031,-8.047459602355957,-0.17173664271831512
1731876440452.0,0.0,0.0,-20.0,0.0,0.0,0.0,0.0,0.0,0.0,0.0,0.0,0.0,0.0,0.0,0.0,10.90008544921875,-1.8750280141830444,10.132086753845215,0.10715154558420181,0.2565940320491791,-3.0995579436421394e-09,-536.0774536132812,-3096.5048828125,-16079.7939453125,804.6943969726562,1926.9884033203125,-2.3277283617062494e-05,44.274497985839844,-8.04757022857666,0.07368111610412598
1731876440502.0,0.0,0.0,-20.0,0.0,0.0,0.0,0.0,0.0,0.0,0.0,0.0,0.0,0.0,0.0,0.0,11.1331787109375,-1.298815369606018,10.244331359863281,0.09484611451625824,0.25513556599617004,8.498318493366241e-09,-371.3706359863281,-3162.77685546875,-16071.5400390625,712.2822265625,1916.0355224609375,6.382128776749596e-05,44.27124786376953,-8.046280860900879,0.560465931892395
1731876440518.0,0.0,0.0,-20.0,0.0,0.0,0.0,0.0,0.0,0.0,0.0,0.0,0.0,0.0,0.0,0.0,11.24072265625,-1.0120065212249756,10.301064491271973,0.09067483991384506,0.2545051574707031,-1.6880221664905548e-09,-289.3730163574219,-3193.259765625,-16067.1962890625,680.9564819335938,1911.30126953125,-1.2676830920099746e-05,44.26776885986328,-8.044988632202148,0.8016233444213867
1731876440535.0,0.0,0.0,-20.0,0.0,0.0,0.0,0.0,0.0,0.0,0.0,0.0,0.0,0.0,0.0,0.0,11.34375,-0.726010799407959,10.358176231384277,0.08649356663227081,0.2538062334060669,-2.9103830456733704e-10,-207.60067749023438,-3222.39013671875,-16062.64453125,649.5556640625,1906.0523681640625,-2.185660605391604e-06,44.26308059692383,-8.043316841125488,1.0415257215499878
1731876440552.0,0.0,0.0,-20.0,0.0,0.0,0.0,0.0,0.0,0.0,0.0,0.0,0.0,0.0,0.0,0.0,11.442291259765625,-0.4409010708332062,10.415632247924805,0.0822419598698616,0.2530279755592346,-1.5133991837501526e-09,-126.0765151977539,-3250.175537109375,-16057.892578125,617.6265869140625,1900.207763671875,-1.1365434147592168e-05,44.25718688964844,-8.041309356689453,1.2801103591918945
1731876440602.0,0.0,0.0,-20.0,0.0,0.0,0.0,0.0,0.0,0.0,0.0,0.0,0.0,0.0,0.0,0.0,11.62078857421875,0.125335693359375,10.531180381774902,0.0695243701338768,0.2503044009208679,-3.4924596548080444e-10,35.840309143066406,-3300.27587890625,-16048.1259765625,522.119140625,1879.7540283203125,-2.6227926355204545e-06,44.24189758300781,-8.036593437194824,1.7515203952789307
1731876440618.0,0.0,0.0,-20.0,0.0,0.0,0.0,0.0,0.0,0.0,0.0,0.0,0.0,0.0,0.0,0.0,11.700714111328125,0.40625,10.589152336120605,0.06518746167421341,0.24924330413341522,-1.7462298274040222e-09,116.16813659667969,-3322.58349609375,-16043.140625,489.54949951171875,1871.785400390625,-1.3113963177602272e-05,44.2325439453125,-8.033995628356934,1.98415207862854
1731876440635.0,0.0,0.0,-20.0,0.0,0.0,0.0,0.0,0.0,0.0,0.0,0.0,0.0,0.0,0.0,0.0,11.775970458984375,0.685882568359375,10.647260665893555,0.06089530140161514,0.24812838435173035,1.7462298274040222e-10,196.12669372558594,-3343.497314453125,-16038.0166015625,457.3159484863281,1863.4124755859375,1.3113963177602272e-06,44.22208023071289,-8.031259536743164,2.215088129043579
1731876440652.0,0.0,0.0,-20.0,0.0,0.0,0.0,0.0,0.0,0.0,0.0,0.0,0.0,0.0,0.0,0.0,11.846588134765625,0.964202880859375,10.705466270446777,0.056538745760917664,0.24693162739276886,1.57160684466362e-09,275.7054138183594,-3363.026611328125,-16032.7626953125,424.5987548828125,1854.4249267578125,1.1802566405094694e-05,44.210514068603516,-8.028419494628906,2.4442989826202393
1731876440702.0,0.0,0.0,-20.0,0.0,0.0,0.0,0.0,0.0,0.0,0.0,0.0,0.0,0.0,0.0,0.0,11.968719482421875,1.515045166015625,10.821676254272461,0.04350661858916283,0.24296735227108002,-7.639755494892597e-10,433.18389892578125,-3396.4873046875,-16022.22265625,326.7291564941406,1824.65380859375,-5.7373586059839e-06,44.18428039550781,-8.022866249084473,2.8953213691711426
1731876440718.0,0.0,0.0,-20.0,0.0,0.0,0.0,0.0,0.0,0.0,0.0,0.0,0.0,0.0,0.0,0.0,12.020263671875,1.787384033203125,10.879560470581055,0.039158351719379425,0.24151840806007385,3.2014213502407074e-09,511.028076171875,-3410.432373046875,-16016.966796875,294.07421875,1813.7723388671875,2.4042265067691915e-05,44.169673919677734,-8.02025032043457,3.116973638534546
1731876440735.0,0.0,0.0,-20.0,0.0,0.0,0.0,0.0,0.0,0.0,0.0,0.0,0.0,0.0,0.0,0.0,12.067047119140625,2.05804443359375,10.937339782714844,0.03478327393531799,0.2399977147579193,9.89530235528946e-10,588.3810424804688,-3422.966796875,-16011.6376953125,261.21795654296875,1802.3521728515625,7.4312456490588374e-06,44.15408706665039,-8.017724990844727,3.3365626335144043
1731876440752.0,0.0,0.0,-20.0,0.0,0.0,0.0,0.0,0.0,0.0,0.0,0.0,0.0,0.0,0.0,0.0,12.109130859375,2.32696533203125,10.994976043701172,0.030301794409751892,0.23837517201900482,1.3969838619232178e-09,665.223876953125,-3434.109375,-16006.2431640625,227.56260681152344,1790.1671142578125,1.0491170542081818e-05,44.137550354003906,-8.015327453613281,3.554042339324951
1731876440785.0,0.0,0.0,-20.0,0.0,0.0,0.0,0.0,0.0,0.0,0.0,0.0,0.0,0.0,0.0,0.0,12.14630126953125,2.594024658203125,11.05241870880127,0.021508218720555305,0.23500193655490875,-2.9103830456733704e-09,741.5203247070312,-3443.802734375,-16000.806640625,161.5239715576172,1764.83447265625,-2.1856605599168688e-05,44.120094299316406,-8.013111114501953,3.769280195236206
1731876440819.0,0.0,0.0,-20.0,0.0,0.0,0.0,0.0,0.0,0.0,0.0,0.0,0.0,0.0,0.0,0.0,12.1961669921875,3.118499755859375,11.165688514709473,0.012528695166110992,0.23130051791667938,-6.05359673500061e-09,891.3095703125,-3456.149169921875,-15990.5,94.08889770507812,1737.037353515625,-4.546173659036867e-05,44.08283233642578,-8.01004695892334,4.188447952270508
1731876440835.0,0.0,0.0,-20.0,0.0,0.0,0.0,0.0,0.0,0.0,0.0,0.0,0.0,0.0,0.0,0.0,12.213714599609375,3.3775634765625,11.221813201904297,0.00811409205198288,0.2293861210346222,3.725290298461914e-09,965.2710571289062,-3460.158203125,-15985.337890625,60.935794830322266,1722.6605224609375,2.7976453566225246e-05,44.06298065185547,-8.008970260620117,4.394340991973877
1731876440852.0,0.0,0.0,-20.0,0.0,0.0,0.0,0.0,0.0,0.0,0.0,0.0,0.0,0.0,0.0,0.0,12.226409912109375,3.63446044921875,11.277556419372559,0.0036810189485549927,0.22740112245082855,1.1641532182693481e-09,1038.5943603515625,-3462.747802734375,-15980.1787109375,27.64398193359375,1707.75341796875,8.742642421566416e-06,44.04235076904297,-8.008243560791016,4.5977373123168945
1731876440886.0,0.0,0.0,-20.0,0.0,0.0,0.0,0.0,0.0,0.0,0.0,0.0,0.0,0.0,0.0,0.0,12.2342529296875,3.889129638671875,11.332880020141602,-0.005219455808401108,0.2232266515493393,2.3283064365386963e-09,1111.2613525390625,-3463.92333984375,-15975.0361328125,-39.197444915771484,1676.4036865234375,1.748528484313283e-05,44.0209846496582,-8.007898330688477,4.798584938049316
1731876440902.0,0.0,0.0,-20.0,0.0,0.0,0.0,0.0,0.0,0.0,0.0,0.0,0.0,0.0,0.0,0.0,12.232086181640625,4.139129638671875,11.387213706970215,-0.009603191167116165,0.22107774019241333,-3.725290298461914e-09,1182.5745849609375,-3462.259033203125,-15970.275390625,-72.11873626708984,1660.265625,-2.7976453566225246e-05,43.999122619628906,-8.008406639099121,4.994241714477539
1731876440935.0,0.0,0.0,-20.0,0.0,0.0,0.0,0.0,0.0,0.0,0.0,0.0,0.0,0.0,0.0,0.0,12.213348388671875,4.631866455078125,11.494279861450195,-0.018345464020967484,0.216608926653862,3.725290298461914e-09,1323.06201171875,-3454.75634765625,-15960.8779296875,-137.7720947265625,1626.705322265625,2.7976453566225246e-05,43.9534912109375,-8.010855674743652,5.377445220947266
1731876440935.0,0.0,0.0,-20.0,0.0,0.0,0.0,0.0,0.0,0.0,0.0,0.0,0.0,0.0,0.0,0.0,12.213348388671875,4.631866455078125,11.494279861450195,-0.018345464020967484,0.216608926653862,3.725290298461914e-09,1323.06201171875,-3454.75634765625,-15960.8779296875,-137.7720947265625,1626.705322265625,2.7976453566225246e-05,43.9534912109375,-8.010855674743652,5.377445220947266
1731876440985.0,0.0,0.0,-20.0,0.0,0.0,0.0,0.0,0.0,0.0,0.0,0.0,0.0,0.0,0.0,0.0,12.175140380859375,5.114471435546875,11.598963737487793,-0.031652532517910004,0.20933501422405243,-2.7939677238464355e-09,1460.56591796875,-3441.639892578125,-15951.7177734375,-237.70648193359375,1572.0792236328125,-2.0982341084163636e-05,43.90554428100586,-8.0154390335083,5.749424457550049
1731876441002.0,0.0,0.0,-20.0,0.0,0.0,0.0,0.0,0.0,0.0,0.0,0.0,0.0,0.0,0.0,0.0,12.14349365234375,5.348968505859375,11.649701118469238,-0.036002401262521744,0.20683272182941437,9.313225746154785e-10,1527.3421630859375,-3431.542236328125,-15947.640625,-270.3734436035156,1553.287353515625,6.994113391556311e-06,43.881099700927734,-8.019135475158691,5.928116321563721
1731876441019.0,0.0,0.0,-20.0,0.0,0.0,0.0,0.0,0.0,0.0,0.0,0.0,0.0,0.0,0.0,0.0,12.10699462890625,5.5806884765625,11.699712753295898,-0.04045485705137253,0.2042071670293808,0.0,1593.3023681640625,-3420.05908203125,-15943.65234375,-303.8108215332031,1533.5697021484375,0.0,43.85621643066406,-8.023469924926758,6.103806018829346
1731876441052.0,0.0,0.0,-20.0,0.0,0.0,0.0,0.0,0.0,0.0,0.0,0.0,0.0,0.0,0.0,0.0,12.01898193359375,6.035308837890625,11.797379493713379,-0.049323827028274536,0.19878169894218445,1.862645149230957e-09,1722.635498046875,-3392.823974609375,-15936.01953125,-370.4156494140625,1492.8251953125,1.3988226783112623e-05,43.805301666259766,-8.034197807312012,6.445723533630371
1731876441052.0,0.0,0.0,-20.0,0.0,0.0,0.0,0.0,0.0,0.0,0.0,0.0,0.0,0.0,0.0,0.0,12.01898193359375,6.035308837890625,11.797379493713379,-0.049323827028274536,0.19878169894218445,1.862645149230957e-09,1722.635498046875,-3392.823974609375,-15936.01953125,-370.4156494140625,1492.8251953125,1.3988226783112623e-05,43.805301666259766,-8.034197807312012,6.445723533630371
1731876441102.0,0.0,0.0,-20.0,0.0,0.0,0.0,0.0,0.0,0.0,0.0,0.0,0.0,0.0,0.0,0.0,11.9112548828125,6.4779052734375,11.891745567321777,-0.06229736655950546,0.19036778807640076,-3.725290298461914e-09,1848.44384765625,-3360.00830078125,-15928.8740234375,-467.84527587890625,1429.6378173828125,-2.7976453566225246e-05,43.75310134887695,-8.047820091247559,6.774859428405762
1731876441119.0,0.0,0.0,-20.0,0.0,0.0,0.0,0.0,0.0,0.0,0.0,0.0,0.0,0.0,0.0,0.0,11.84503173828125,6.691375732421875,11.936945915222168,-0.06663096696138382,0.18742814660072327,-2.7939677238464355e-09,1909.084228515625,-3340.15869140625,-15925.8974609375,-500.3900451660156,1407.5614013671875,-2.0982341084163636e-05,43.72700881958008,-8.056361198425293,6.931356430053711
1731876441136.0,0.0,0.0,-20.0,0.0,0.0,0.0,0.0,0.0,0.0,0.0,0.0,0.0,0.0,0.0,0.0,11.77392578125,6.901611328125,11.981212615966797,-0.07089884579181671,0.184468612074852,1.862645149230957e-09,1968.7794189453125,-3318.93994140625,-15923.0654296875,-532.4412841796875,1385.335693359375,1.3988226783112623e-05,43.70073699951172,-8.065698623657227,7.084482669830322
1731876441152.0,0.0,0.0,-20.0,0.0,0.0,0.0,0.0,0.0,0.0,0.0,0.0,0.0,0.0,0.0,0.0,11.697967529296875,7.108551025390625,12.02453327178955,-0.07505369186401367,0.18152520060539246,1.862645149230957e-09,2027.5130615234375,-3296.364501953125,-15920.3837890625,-563.6436157226562,1363.2310791015625,1.3988226783112623e-05,43.6743278503418,-8.07585620880127,7.234199523925781
1731876441169.0,0.0,0.0,-20.0,0.0,0.0,0.0,0.0,0.0,0.0,0.0,0.0,0.0,0.0,0.0,0.0,11.617279052734375,7.312286376953125,12.066899299621582,-0.07943680882453918,0.17835253477096558,-1.862645149230957e-09,2085.311279296875,-3272.468505859375,-15917.84765625,-596.560302734375,1339.40478515625,-1.3988226783112623e-05,43.64780044555664,-8.086821556091309,7.380590438842773
1731876441219.0,0.0,0.0,-20.0,0.0,0.0,0.0,0.0,0.0,0.0,0.0,0.0,0.0,0.0,0.0,0.0,11.43621826171875,7.705780029296875,12.147868156433105,-0.09192177653312683,0.1689252406358719,0.0,2196.86767578125,-3219.234130859375,-15913.697265625,-690.32080078125,1268.60693359375,0.0,43.59508514404297,-8.111994743347168,7.6592535972595215
