ts,linPos_x,linPos_y,linPos_z,linVel_x,linVel_y,linVel_z,linAcc_x,linAcc_y,linAcc_z,force_x,force_y,force_z,torque_x,torque_y,torque_z,euler_x,euler_y,euler_z,angVel_x,angVel_y,angVel_z,accelerometer_x,accelerometer_y,accelerometer_z,gyroscope_x,gyroscope_y,gyroscope_z,magnetometer_x,magnetometer_y,magnetometer_z
1731876350925.0,0.0,0.0,-20.0,0.0,0.0,0.0,0.0,0.0,0.0,0.0,0.0,0.0,0.0,0.0,0.0,0.0,0.0,0.0,0.0,0.0,0.0,0.0,0.0,-16384.0,0.0,0.0,0.0,45.0,0.0,0.0
1731876350942.0,0.0,0.0,-20.0,0.0,0.0,0.0,0.0,0.0,0.0,0.0,0.0,0.0,0.0,0.0,0.0,0.0,0.0,0.0,0.0,0.0,0.0,0.0,0.0,-16384.0,0.0,0.0,0.0,45.0,0.0,0.0
1731876350959.0,0.0,0.0,-20.0,0.0,0.0,0.0,0.0,0.0,0.0,0.0,0.0,0.0,0.0,0.0,0.0,0.0,0.0,0.0,0.0,0.0,0.0,0.0,0.0,-16384.0,0.0,0.0,0.0,45.0,0.0,0.0
1731876350976.0,0.0,0.0,-20.0,0.0,0.0,0.0,0.0,0.0,0.0,0.0,0.0,0.0,0.0,0.0,0.0,0.0,0.0,0.0,0.0,0.0,0.0,0.0,0.0,-16384.0,0.0,0.0,0.0,45.0,0.0,0.0
1731876350992.0,0.0,0.0,-20.0,0.0,0.0,0.0,0.0,0.0,0.0,0.0,0.0,0.0,0.0,0.0,0.0,0.0,0.0,0.0,0.0,0.0,0.0,0.0,0.0,-16384.0,0.0,0.0,0.0,45.0,0.0,0.0
1731876351042.0,0.0,0.0,-20.0,0.0,0.0,0.0,0.0,0.0,0.0,0.0,0.0,0.0,0.0,0.0,0.0,0.0,0.0,0.0,0.0,0.0,0.0,0.0,0.0,-16384.0,0.0,0.0,0.0,45.0,0.0,0.0
1731876351059.0,0.0,0.0,-20.0,0.0,0.0,0.0,0.0,0.0,0.0,0.0,0.0,0.0,0.0,0.0,0.0,0.0,0.0,0.0,0.0,0.0,0.0,0.0,0.0,-16384.0,0.0,0.0,0.0,45.0,0.0,0.0
1731876351075.0,0.0,0.0,-20.0,0.0,0.0,0.0,0.0,0.0,0.0,0.0,0.0,0.0,0.0,0.0,0.0,0.0,0.0,0.0,0.0,0.0,0.0,0.0,0.0,-16384.0,0.0,0.0,0.0,45.0,0.0,0.0
1731876351092.0,0.0,0.0,-20.0,0.0,0.0,0.0,0.0,0.0,0.0,0.0,0.0,0.0,0.0,0.0,0.0,0.0,0.0,0.0,0.0,0.0,0.0,0.0,0.0,-16384.0,0.0,0.0,0.0,45.0,0.0,0.0
1731876351125.0,0.0,0.0,-20.0,0.0,0.0,0.0,0.0,0.0,0.0,0.0,0.0,0.0,0.0,0.0,0.0,0.0,0.0,0.0,0.0,0.0,0.0,0.0,0.0,-16384.0,0.0,0.0,0.0,45.0,0.0,0.0
1731876351159.0,0.0,0.0,-20.0,0.0,0.0,0.0,0.0,0.0,0.0,0.0,0.0,0.0,0.0,0.0,0.0,0.0,0.0,0.0,0.0,0.0,0.0,0.0,0.0,-16384.0,0.0,0.0,0.0,45.0,0.0,0.0
1731876351176.0,0.0,0.0,-20.0,0.0,0.0,0.0,0.0,0.0,0.0,0.0,0.0,0.0,0.0,0.0,0.0,0.0,0.0,0.0,0.0,0.0,0.0,0.0,0.0,-16384.0,0.0,0.0,0.0,45.0,0.0,0.0
1731876351176.0,0.0,0.0,-20.0,0.0,0.0,0.0,0.0,0.0,0.0,0.0,0.0,0.0,0.0,0.0,0.0,0.0,0.0,0.0,0.0,0.0,0.0,0.0,0.0,-16384.0,0.0,0.0,0.0,45.0,0.0,0.0
1731876351226.0,0.0,0.0,-20.0,0.0,0.0,0.0,0.0,0.0,0.0,0.0,0.0,0.0,0.0,0.0,0.0,0.0,0.0,0.0,0.0,0.0,0.0,0.0,0.0,-16384.0,0.0,0.0,0.0,45.0,0.0,0.0
1731876351242.0,0.0,0.0,-20.0,0.0,0.0,0.0,0.0,0.0,0.0,0.0,0.0,0.0,0.0,0.0,0.0,0.0,0.0,0.0,0.0,0.0,0.0,0.0,0.0,-16384.0,0.0,0.0,0.0,45.0,0.0,0.0
1731876351276.0,0.0,0.0,-20.0,0.0,0.0,0.0,0.0,0.0,0.0,0.0,0.0,0.0,0.0,0.0,0.0,0.0,0.0,0.0,0.0,0.0,0.0,0.0,0.0,-16384.0,0.0,0.0,0.0,45.0,0.0,0.0
1731876351276.0,0.0,0.0,-20.0,0.0,0.0,0.0,0.0,0.0,0.0,0.0,0.0,0.0,0.0,0.0,0.0,0.0,0.0,0.0,0.0,0.0,0.0,0.0,0.0,-16384.0,0.0,0.0,0.0,45.0,0.0,0.0
1731876351326.0,0.0,0.0,-20.0,0.0,0.0,0.0,0.0,0.0,0.0,0.0,0.0,0.0,0.0,0.0,0.0,0.0,0.0,0.0,0.0,0.0,0.0,0.0,0.0,-16384.0,0.0,0.0,0.0,45.0,0.0,0.0
1731876351342.0,0.0,0.0,-20.0,0.0,0.0,0.0,0.0,0.0,0.0,0.0,0.0,0.0,0.0,0.0,0.0,0.0,0.0,0.0,0.0,0.0,0.0,0.0,0.0,-16384.0,0.0,0.0,0.0,45.0,0.0,0.0
1731876351376.0,0.0,0.0,-20.0,0.0,0.0,0.0,0.0,0.0,0.0,0.0,0.0,0.0,0.0,0.0,0.0,0.0,0.0,0.0,0.0,0.0,0.0,0.0,0.0,-16384.0,0.0,0.0,0.0,45.0,0.0,0.0
1731876351376.0,0.0,0.0,-20.0,0.0,0.0,0.0,0.0,0.0,0.0,0.0,0.0,0.0,0.0,0.0,0.0,0.0,0.0,0.0,0.0,0.0,0.0,0.0,0.0,-16384.0,0.0,0.0,0.0,45.0,0.0,0.0
1731876351426.0,0.0,0.0,-20.0,0.0,0.0,0.0,0.0,0.0,0.0,0.0,0.0,0.0,0.0,0.0,0.0,0.0,0.0,0.0,0.0,0.0,0.0,0.0,0.0,-16384.0,0.0,0.0,0.0,45.0,0.0,0.0
1731876351443.0,0.0,0.0,-20.0,0.0,0.0,0.0,0.0,0.0,0.0,0.0,0.0,0.0,0.0,0.0,0.0,0.0,0.0,0.0,0.0,0.0,0.0,0.0,0.0,-16384.0,0.0,0.0,0.0,45.0,0.0,0.0
1731876351459.0,0.0,0.0,-20.0,0.0,0.0,0.0,0.0,0.0,0.0,0.0,0.0,0.0,0.0,0.0,0.0,0.0,0.0,0.0,0.0,0.0,0.0,0.0,0.0,-16384.0,0.0,0.0,0.0,45.0,0.0,0.0
1731876351493.0,0.0,0.0,-20.0,0.0,0.0,0.0,0.0,0.0,0.0,0.0,0.0,0.0,0.0,0.0,0.0,0.0,0.0,0.0,0.0,0.0,0.0,0.0,0.0,-16384.0,0.0,0.0,0.0,45.0,0.0,0.0
1731876351493.0,0.0,0.0,-20.0,0.0,0.0,0.0,0.0,0.0,0.0,0.0,0.0,0.0,0.0,0.0,0.0,0.0,0.0,0.0,0.0,0.0,0.0,0.0,0.0,-16384.0,0.0,0.0,0.0,45.0,0.0,0.0
1731876351543.0,0.0,0.0,-20.0,0.0,0.0,0.0,0.0,0.0,0.0,0.0,0.0,0.0,0.0,0.0,0.0,0.0,0.0,-0.03656005859375,0.0,0.0,-0.023376435041427612,0.0,0.0,-16384.0,0.0,0.0,-175.55404663085938,44.99999237060547,0.028714202344417572,0.0
1731876351560.0,0.0,0.0,-20.0,0.0,0.0,0.0,0.0,0.0,0.0,0.0,0.0,0.0,0.0,0.0,0.0,0.0,0.0,-0.0633544921875,0.0,0.0,-0.01485719345510006,0.0,0.0,-16384.0,0.0,0.0,-111.57562255859375,44.99997329711914,0.04975849390029907,0.0
1731876351577.0,0.0,0.0,-20.0,0.0,0.0,0.0,0.0,0.0,0.0,0.0,0.0,0.0,0.0,0.0,0.0,0.0,0.0,-0.08038330078125,0.0,0.0,0.019105173647403717,0.0,0.0,-16384.0,0.0,0.0,143.4774169921875,44.99995422363281,0.0631328746676445,0.0
1731876351593.0,0.0,0.0,-20.0,0.0,0.0,0.0,0.0,0.0,0.0,0.0,0.0,0.0,0.0,0.0,0.0,0.0,0.0,-0.058502197265625,0.0,0.0,0.027550097554922104,0.0,0.0,-16384.0,0.0,0.0,206.89772033691406,44.999977111816406,0.04594750702381134,0.0
1731876351627.0,0.0,0.0,-20.0,0.0,0.0,0.0,0.0,0.0,0.0,0.0,0.0,0.0,0.0,0.0,0.0,0.0,0.0,-0.02691650390625,0.0,0.0,0.061200711876153946,0.0,0.0,-16384.0,0.0,0.0,459.6095275878906,44.999996185302734,0.021140173077583313,0.0
1731876351660.0,0.0,0.0,-20.0,0.0,0.0,0.0,0.0,0.0,0.0,0.0,0.0,0.0,0.0,0.0,0.0,0.0,0.0,0.12281922250986099,0.0,0.0,0.07768972218036652,0.0,0.0,-16384.0,0.0,0.0,583.4398803710938,44.99989700317383,-0.09646192938089371,0.0
1731876351677.0,0.0,0.0,-20.0,0.0,0.0,0.0,0.0,0.0,0.0,0.0,0.0,0.0,0.0,0.0,0.0,0.0,0.0,0.21184508502483368,0.0,0.0,0.08583356440067291,0.0,0.0,-16384.0,0.0,0.0,644.59912109375,44.999691009521484,-0.16638237237930298,0.0
1731876351694.0,0.0,0.0,-20.0,0.0,0.0,0.0,0.0,0.0,0.0,0.0,0.0,0.0,0.0,0.0,0.0,0.0,0.0,0.31020310521125793,0.0,0.0,0.10224318504333496,0.0,0.0,-16384.0,0.0,0.0,767.833251953125,44.99934005737305,-0.2436317652463913,0.0
1731876351727.0,0.0,0.0,-20.0,0.0,0.0,0.0,0.0,0.0,0.0,0.0,0.0,0.0,0.0,0.0,0.0,0.0,0.0,0.42736515402793884,0.0,0.0,0.10978633165359497,0.0,0.0,-16384.0,0.0,0.0,824.4813232421875,44.998748779296875,-0.33564871549606323,0.0
1731876351743.0,0.0,0.0,-20.0,0.0,0.0,0.0,0.0,0.0,0.0,0.0,0.0,0.0,0.0,0.0,0.0,0.0,0.0,0.5531710982322693,0.0,0.0,0.11758358031511307,0.0,0.0,-16384.0,0.0,0.0,883.0376586914062,44.997901916503906,-0.4344528317451477,0.0
1731876351776.0,0.0,0.0,-20.0,0.0,0.0,0.0,0.0,0.0,0.0,0.0,0.0,0.0,0.0,0.0,0.0,0.0,0.0,0.8315002918243408,0.0,0.0,0.12471172213554382,0.0,0.0,-16384.0,0.0,0.0,936.569091796875,44.995262145996094,-0.6530359387397766,0.0
1731876351793.0,0.0,0.0,-20.0,0.0,0.0,0.0,0.0,0.0,0.0,0.0,0.0,0.0,0.0,0.0,0.0,0.0,0.0,0.9744095206260681,0.0,0.0,0.12407881021499634,0.0,0.0,-16384.0,0.0,0.0,931.8160400390625,44.993492126464844,-0.7652625441551208,0.0
1731876351810.0,0.0,0.0,-20.0,0.0,0.0,0.0,0.0,0.0,0.0,0.0,0.0,0.0,0.0,0.0,0.0,0.0,0.0,1.1165932416915894,0.0,0.0,0.13149933516979218,0.0,0.0,-16384.0,0.0,0.0,987.543212890625,44.991455078125,-0.8769147992134094,0.0
1731876351843.0,0.0,0.0,-20.0,0.0,0.0,0.0,0.0,0.0,0.0,0.0,0.0,0.0,0.0,0.0,0.0,0.0,0.0,1.2672804594039917,0.0,0.0,0.1380096673965454,0.0,0.0,-16384.0,0.0,0.0,1036.4349365234375,44.988990783691406,-0.9952386617660522,0.0
1731876351877.0,0.0,0.0,-20.0,0.0,0.0,0.0,0.0,0.0,0.0,0.0,0.0,0.0,0.0,0.0,0.0,0.0,0.0,1.582562804222107,0.0,0.0,0.15201129019260406,0.0,0.0,-16384.0,0.0,0.0,1141.5853271484375,44.98283767700195,-1.2427839040756226,0.0
1731876351894.0,0.0,0.0,-20.0,0.0,0.0,0.0,0.0,0.0,0.0,0.0,0.0,0.0,0.0,0.0,0.0,0.0,0.0,1.7567548751831055,0.0,0.0,0.15882177650928497,0.0,0.0,-16384.0,0.0,0.0,1192.731201171875,44.97884750366211,-1.3795359134674072,0.0
1731876351910.0,0.0,0.0,-20.0,0.0,0.0,0.0,0.0,0.0,0.0,0.0,0.0,0.0,0.0,0.0,0.0,0.0,0.0,1.9387513399124146,0.0,0.0,0.18102902173995972,0.0,0.0,-16384.0,0.0,0.0,1359.5048828125,44.974239349365234,-1.522401213645935,0.0
1731876351943.0,0.0,0.0,-20.0,0.0,0.0,0.0,0.0,0.0,0.0,0.0,0.0,0.0,0.0,0.0,0.0,0.0,0.0,2.146195411682129,0.0,0.0,0.20898427069187164,0.0,0.0,-16384.0,0.0,0.0,1569.4451904296875,44.96843338012695,-1.6852238178253174,0.0
1731876351960.0,0.0,0.0,-20.0,0.0,0.0,0.0,0.0,0.0,0.0,0.0,0.0,0.0,0.0,0.0,0.0,0.0,0.0,2.3856735229492188,0.0,0.0,0.2148868590593338,0.0,0.0,-16384.0,0.0,0.0,1613.7728271484375,44.96099853515625,-1.8731622695922852,0.0
1731876351994.0,0.0,0.0,-20.0,0.0,0.0,0.0,0.0,0.0,0.0,0.0,0.0,0.0,0.0,0.0,0.0,0.0,0.0,2.884644031524658,0.0,0.0,0.21854375302791595,0.0,0.0,-16384.0,0.0,0.0,1641.2357177734375,44.94297790527344,-2.2646372318267822,0.0
1731876351994.0,0.0,0.0,-20.0,0.0,0.0,0.0,0.0,0.0,0.0,0.0,0.0,0.0,0.0,0.0,0.0,0.0,0.0,2.884644031524658,0.0,0.0,0.21854375302791595,0.0,0.0,-16384.0,0.0,0.0,1641.2357177734375,44.94297790527344,-2.2646372318267822,0.0
1731876352044.0,0.0,0.0,-20.0,0.0,0.0,0.0,0.0,0.0,0.0,0.0,0.0,0.0,0.0,0.0,0.0,0.0,0.0,3.3917198181152344,0.0,0.0,0.23411615192890167,0.0,0.0,-16384.0,0.0,0.0,1758.182373046875,44.92117691040039,-2.662294864654541,0.0
1731876352060.0,0.0,0.0,-20.0,0.0,0.0,0.0,0.0,0.0,0.0,0.0,0.0,0.0,0.0,0.0,0.0,0.0,0.0,3.65999698638916,0.0,0.0,0.23176342248916626,0.0,0.0,-16384.0,0.0,0.0,1740.513671875,44.90821838378906,-2.8726003170013428,0.0
1731876352076.0,0.0,0.0,-20.0,0.0,0.0,0.0,0.0,0.0,0.0,0.0,0.0,0.0,0.0,0.0,0.0,0.0,0.0,3.9255783557891846,0.0,0.0,0.22929473221302032,0.0,0.0,-16384.0,0.0,0.0,1721.97412109375,44.89442443847656,-3.0807301998138428,0.0
1731876352093.0,0.0,0.0,-20.0,0.0,0.0,0.0,0.0,0.0,0.0,0.0,0.0,0.0,0.0,0.0,0.0,0.0,0.0,4.188331127166748,0.0,0.0,0.2267254889011383,0.0,0.0,-16384.0,0.0,0.0,1702.679443359375,44.87982177734375,-3.28657865524292,0.0
1731876352126.0,0.0,0.0,-20.0,0.0,0.0,0.0,0.0,0.0,0.0,0.0,0.0,0.0,0.0,0.0,0.0,0.0,0.0,4.448139190673828,0.0,0.0,0.2214357852935791,0.0,0.0,-16384.0,0.0,0.0,1662.9544677734375,44.86445617675781,-3.4900522232055664,0.0
1731876352160.0,0.0,0.0,-20.0,0.0,0.0,0.0,0.0,0.0,0.0,0.0,0.0,0.0,0.0,0.0,0.0,0.0,0.0,4.95249605178833,0.0,0.0,0.2158898115158081,0.0,0.0,-16384.0,0.0,0.0,1621.304931640625,44.83199691772461,-3.8848395347595215,0.0
1731876352177.0,0.0,0.0,-20.0,0.0,0.0,0.0,0.0,0.0,0.0,0.0,0.0,0.0,0.0,0.0,0.0,0.0,0.0,5.199887752532959,0.0,0.0,0.21301032602787018,0.0,0.0,-16384.0,0.0,0.0,1599.6802978515625,44.8148078918457,-4.078378200531006,0.0
1731876352177.0,0.0,0.0,-20.0,0.0,0.0,0.0,0.0,0.0,0.0,0.0,0.0,0.0,0.0,0.0,0.0,0.0,0.0,5.199887752532959,0.0,0.0,0.21301032602787018,0.0,0.0,-16384.0,0.0,0.0,1599.6802978515625,44.8148078918457,-4.078378200531006,0.0
1731876352226.0,0.0,0.0,-20.0,0.0,0.0,0.0,0.0,0.0,0.0,0.0,0.0,0.0,0.0,0.0,0.0,0.0,0.0,5.684765338897705,0.0,0.0,0.2041161209344864,0.0,0.0,-16384.0,0.0,0.0,1532.885986328125,44.7786865234375,-4.45748233795166,0.0
1731876352243.0,0.0,0.0,-20.0,0.0,0.0,0.0,0.0,0.0,0.0,0.0,0.0,0.0,0.0,0.0,0.0,0.0,0.0,5.91866397857666,0.0,0.0,0.20098066329956055,0.0,0.0,-16384.0,0.0,0.0,1509.339111328125,44.76011657714844,-4.640244960784912,0.0
1731876352277.0,0.0,0.0,-20.0,0.0,0.0,0.0,0.0,0.0,0.0,0.0,0.0,0.0,0.0,0.0,0.0,0.0,0.0,6.375712871551514,0.0,0.0,0.1946447640657425,0.0,0.0,-16384.0,0.0,0.0,1461.75732421875,44.7216796875,-4.997145652770996,0.0
1731876352293.0,0.0,0.0,-20.0,0.0,0.0,0.0,0.0,0.0,0.0,0.0,0.0,0.0,0.0,0.0,0.0,0.0,0.0,6.598759174346924,0.0,0.0,0.19137758016586304,0.0,0.0,-16384.0,0.0,0.0,1437.22119140625,44.70188522338867,-5.17120361328125,0.0
1731876352310.0,0.0,0.0,-20.0,0.0,0.0,0.0,0.0,0.0,0.0,0.0,0.0,0.0,0.0,0.0,0.0,0.0,0.0,6.818060874938965,0.0,0.0,0.18804465234279633,0.0,0.0,-16384.0,0.0,0.0,1412.1912841796875,44.681766510009766,-5.342264175415039,0.0
1731876352343.0,0.0,0.0,-20.0,0.0,0.0,0.0,0.0,0.0,0.0,0.0,0.0,0.0,0.0,0.0,0.0,0.0,0.0,7.033545017242432,0.0,0.0,0.18133416771888733,0.0,0.0,-16384.0,0.0,0.0,1361.79638671875,44.66135787963867,-5.510269641876221,0.0
1731876352360.0,0.0,0.0,-20.0,0.0,0.0,0.0,0.0,0.0,0.0,0.0,0.0,0.0,0.0,0.0,0.0,0.0,0.0,7.241337776184082,0.0,0.0,0.17784683406352997,0.0,0.0,-16384.0,0.0,0.0,1335.6070556640625,44.64107894897461,-5.672204971313477,0.0
1731876352393.0,0.0,0.0,-20.0,0.0,0.0,0.0,0.0,0.0,0.0,0.0,0.0,0.0,0.0,0.0,0.0,0.0,0.0,7.644774913787842,0.0,0.0,0.17073601484298706,0.0,0.0,-16384.0,0.0,0.0,1282.2056884765625,44.600032806396484,-5.986393451690674,0.0
1731876352393.0,0.0,0.0,-20.0,0.0,0.0,0.0,0.0,0.0,0.0,0.0,0.0,0.0,0.0,0.0,0.0,0.0,0.0,7.644774913787842,0.0,0.0,0.17073601484298706,0.0,0.0,-16384.0,0.0,0.0,1282.2056884765625,44.600032806396484,-5.986393451690674,0.0
1731876352444.0,0.0,0.0,-20.0,0.0,0.0,0.0,0.0,0.0,0.0,0.0,0.0,0.0,0.0,0.0,0.0,0.0,0.0,8.031877517700195,0.0,0.0,0.15970611572265625,0.0,0.0,-16384.0,0.0,0.0,1199.37255859375,44.558570861816406,-6.287581443786621,0.0
1731876352460.0,0.0,0.0,-20.0,0.0,0.0,0.0,0.0,0.0,0.0,0.0,0.0,0.0,0.0,0.0,0.0,0.0,0.0,8.214887619018555,0.0,0.0,0.1559475213289261,0.0,0.0,-16384.0,0.0,0.0,1171.14599609375,44.53826141357422,-6.429875373840332,0.0
1731876352477.0,0.0,0.0,-20.0,0.0,0.0,0.0,0.0,0.0,0.0,0.0,0.0,0.0,0.0,0.0,0.0,0.0,0.0,8.393590927124023,0.0,0.0,0.15215927362442017,0.0,0.0,-16384.0,0.0,0.0,1142.6966552734375,44.51799011230469,-6.568756580352783,0.0
1731876352494.0,0.0,0.0,-20.0,0.0,0.0,0.0,0.0,0.0,0.0,0.0,0.0,0.0,0.0,0.0,0.0,0.0,0.0,8.567952156066895,0.0,0.0,0.14835697412490845,0.0,0.0,-16384.0,0.0,0.0,1114.1419677734375,44.49779510498047,-6.704202175140381,0.0
1731876352510.0,0.0,0.0,-20.0,0.0,0.0,0.0,0.0,0.0,0.0,0.0,0.0,0.0,0.0,0.0,0.0,0.0,0.0,8.737957954406738,0.0,0.0,0.1444285809993744,0.0,0.0,-16384.0,0.0,0.0,1084.64013671875,44.47770690917969,-6.836205005645752,0.0
1731876352561.0,0.0,0.0,-20.0,0.0,0.0,0.0,0.0,0.0,0.0,0.0,0.0,0.0,0.0,0.0,0.0,0.0,0.0,9.059903144836426,0.0,0.0,0.1325470507144928,0.0,0.0,-16384.0,0.0,0.0,995.4114379882812,44.43859100341797,-7.0860161781311035,0.0
1731876352577.0,0.0,0.0,-20.0,0.0,0.0,0.0,0.0,0.0,0.0,0.0,0.0,0.0,0.0,0.0,0.0,0.0,0.0,9.211791038513184,0.0,0.0,0.1285950243473053,0.0,0.0,-16384.0,0.0,0.0,965.732177734375,44.41965103149414,-7.203794479370117,0.0
1731876352594.0,0.0,0.0,-20.0,0.0,0.0,0.0,0.0,0.0,0.0,0.0,0.0,0.0,0.0,0.0,0.0,0.0,0.0,9.359149932861328,0.0,0.0,0.12444426119327545,0.0,0.0,-16384.0,0.0,0.0,934.5604858398438,44.400978088378906,-7.318014144897461,0.0
1731876352611.0,0.0,0.0,-20.0,0.0,0.0,0.0,0.0,0.0,0.0,0.0,0.0,0.0,0.0,0.0,0.0,0.0,0.0,9.501751899719238,0.0,0.0,0.12034782767295837,0.0,0.0,-16384.0,0.0,0.0,903.7968139648438,44.382625579833984,-7.428499698638916,0.0
1731876352644.0,0.0,0.0,-20.0,0.0,0.0,0.0,0.0,0.0,0.0,0.0,0.0,0.0,0.0,0.0,0.0,0.0,0.0,9.639660835266113,0.0,0.0,0.11216297745704651,0.0,0.0,-16384.0,0.0,0.0,842.3296508789062,44.36461639404297,-7.535305500030518,0.0
1731876352677.0,0.0,0.0,-20.0,0.0,0.0,0.0,0.0,0.0,0.0,0.0,0.0,0.0,0.0,0.0,0.0,0.0,0.0,9.891773223876953,0.0,0.0,0.10363945364952087,0.0,0.0,-16384.0,0.0,0.0,778.3190307617188,44.331031799316406,-7.730444431304932,0.0
1731876352694.0,0.0,0.0,-20.0,0.0,0.0,0.0,0.0,0.0,0.0,0.0,0.0,0.0,0.0,0.0,0.0,0.0,0.0,10.01053524017334,0.0,0.0,0.09943438321352005,0.0,0.0,-16384.0,0.0,0.0,746.739501953125,44.314910888671875,-7.822316646575928,0.0
1731876352694.0,0.0,0.0,-20.0,0.0,0.0,0.0,0.0,0.0,0.0,0.0,0.0,0.0,0.0,0.0,0.0,0.0,0.0,10.01053524017334,0.0,0.0,0.09943438321352005,0.0,0.0,-16384.0,0.0,0.0,746.739501953125,44.314910888671875,-7.822316646575928,0.0
1731876352744.0,0.0,0.0,-20.0,0.0,0.0,0.0,0.0,0.0,0.0,0.0,0.0,0.0,0.0,0.0,0.0,0.0,0.0,10.233428001403809,0.0,0.0,0.08651859313249588,0.0,0.0,-16384.0,0.0,0.0,649.7435913085938,44.28414535522461,-7.994650363922119,0.0
1731876352761.0,0.0,0.0,-20.0,0.0,0.0,0.0,0.0,0.0,0.0,0.0,0.0,0.0,0.0,0.0,0.0,0.0,0.0,10.332571983337402,0.0,0.0,0.08213169127702713,0.0,0.0,-16384.0,0.0,0.0,616.7985229492188,44.27024459838867,-8.071268081665039,0.0
1731876352794.0,0.0,0.0,-20.0,0.0,0.0,0.0,0.0,0.0,0.0,0.0,0.0,0.0,0.0,0.0,0.0,0.0,0.0,10.515953063964844,0.0,0.0,0.07332203537225723,0.0,0.0,-16384.0,0.0,0.0,550.6390991210938,44.24418640136719,-8.212918281555176,0.0
1731876352794.0,0.0,0.0,-20.0,0.0,0.0,0.0,0.0,0.0,0.0,0.0,0.0,0.0,0.0,0.0,0.0,0.0,0.0,10.515953063964844,0.0,0.0,0.07332203537225723,0.0,0.0,-16384.0,0.0,0.0,550.6390991210938,44.24418640136719,-8.212918281555176,0.0
1731876352811.0,0.0,0.0,-20.0,0.0,0.0,0.0,0.0,0.0,0.0,0.0,0.0,0.0,0.0,0.0,0.0,0.0,0.0,10.59997272491455,0.0,0.0,0.06890205293893814,0.0,0.0,-16384.0,0.0,0.0,517.4456176757812,44.232093811035156,-8.277790069580078,0.0
1731876352861.0,0.0,0.0,-20.0,0.0,0.0,0.0,0.0,0.0,0.0,0.0,0.0,0.0,0.0,0.0,0.0,0.0,0.0,10.747634887695312,0.0,0.0,0.0554501935839653,0.0,0.0,-16384.0,0.0,0.0,416.4238586425781,44.21061706542969,-8.391756057739258,0.0
1731876352878.0,0.0,0.0,-20.0,0.0,0.0,0.0,0.0,0.0,0.0,0.0,0.0,0.0,0.0,0.0,0.0,0.0,0.0,10.811177253723145,0.0,0.0,0.05097730830311775,0.0,0.0,-16384.0,0.0,0.0,382.83306884765625,44.2012825012207,-8.44078254699707,0.0
1731876352894.0,0.0,0.0,-20.0,0.0,0.0,0.0,0.0,0.0,0.0,0.0,0.0,0.0,0.0,0.0,0.0,0.0,0.0,10.869592666625977,0.0,0.0,0.04662253335118294,0.0,0.0,-16384.0,0.0,0.0,350.1292724609375,44.19265365600586,-8.485843658447266,0.0
1731876352911.0,0.0,0.0,-20.0,0.0,0.0,0.0,0.0,0.0,0.0,0.0,0.0,0.0,0.0,0.0,0.0,0.0,0.0,10.923016548156738,0.0,0.0,0.042007192969322205,0.0,0.0,-16384.0,0.0,0.0,315.4686584472656,44.184722900390625,-8.527045249938965,0.0
1731876352960.0,0.0,0.0,-20.0,0.0,0.0,0.0,0.0,0.0,0.0,0.0,0.0,0.0,0.0,0.0,0.0,0.0,0.0,11.00882339477539,0.0,0.0,0.02847694605588913,0.0,0.0,-16384.0,0.0,0.0,213.8582305908203,44.17190170288086,-8.593207359313965,0.0
1731876352977.0,0.0,0.0,-20.0,0.0,0.0,0.0,0.0,0.0,0.0,0.0,0.0,0.0,0.0,0.0,0.0,0.0,0.0,11.04145622253418,0.0,0.0,0.02392176166176796,0.0,0.0,-16384.0,0.0,0.0,179.6493682861328,44.16699981689453,-8.618364334106445,0.0
1731876352994.0,0.0,0.0,-20.0,0.0,0.0,0.0,0.0,0.0,0.0,0.0,0.0,0.0,0.0,0.0,0.0,0.0,0.0,11.068866729736328,0.0,0.0,0.019393373280763626,0.0,0.0,-16384.0,0.0,0.0,145.64175415039062,44.162872314453125,-8.639492988586426,0.0
1731876353011.0,0.0,0.0,-20.0,0.0,0.0,0.0,0.0,0.0,0.0,0.0,0.0,0.0,0.0,0.0,0.0,0.0,0.0,11.091092109680176,0.0,0.0,0.014625350013375282,0.0,0.0,-16384.0,0.0,0.0,109.83451080322266,44.159515380859375,-8.656621932983398,0.0
1731876353044.0,0.0,0.0,-20.0,0.0,0.0,0.0,0.0,0.0,0.0,0.0,0.0,0.0,0.0,0.0,0.0,0.0,0.0,11.107850074768066,0.0,0.0,0.005496446508914232,0.0,0.0,-16384.0,0.0,0.0,41.277610778808594,44.156982421875,-8.669537544250488,0.0
1731876353078.0,0.0,0.0,-20.0,0.0,0.0,0.0,0.0,0.0,0.0,0.0,0.0,0.0,0.0,0.0,0.0,0.0,0.0,11.115185737609863,0.0,0.0,-0.0036552983801811934,0.0,0.0,-16384.0,0.0,0.0,-27.450824737548828,44.1558723449707,-8.675191879272461,0.0
1731876353094.0,0.0,0.0,-20.0,0.0,0.0,0.0,0.0,0.0,0.0,0.0,0.0,0.0,0.0,0.0,0.0,0.0,0.0,11.110997200012207,0.0,0.0,-0.008263793773949146,0.0,0.0,-16384.0,0.0,0.0,-62.060035705566406,44.1565055847168,-8.671963691711426,0.0
1731876353094.0,0.0,0.0,-20.0,0.0,0.0,0.0,0.0,0.0,0.0,0.0,0.0,0.0,0.0,0.0,0.0,0.0,0.0,11.110997200012207,0.0,0.0,-0.008263793773949146,0.0,0.0,-16384.0,0.0,0.0,-62.060035705566406,44.1565055847168,-8.671963691711426,0.0
1731876353144.0,0.0,0.0,-20.0,0.0,0.0,0.0,0.0,0.0,0.0,0.0,0.0,0.0,0.0,0.0,0.0,0.0,0.0,11.08674144744873,0.0,0.0,-0.021903034299612045,0.0,0.0,-16384.0,0.0,0.0,-164.48898315429688,44.16017532348633,-8.65326976776123,0.0
1731876353161.0,0.0,0.0,-20.0,0.0,0.0,0.0,0.0,0.0,0.0,0.0,0.0,0.0,0.0,0.0,0.0,0.0,0.0,11.061641693115234,0.0,0.0,-0.026461318135261536,0.0,0.0,-16384.0,0.0,0.0,-198.7211151123047,44.16395950317383,-8.63392448425293,0.0
1731876353194.0,0.0,0.0,-20.0,0.0,0.0,0.0,0.0,0.0,0.0,0.0,0.0,0.0,0.0,0.0,0.0,0.0,0.0,10.995743751525879,0.0,0.0,-0.03550470992922783,0.0,0.0,-16384.0,0.0,0.0,-266.6358337402344,44.17386245727539,-8.583123207092285,0.0
1731876353194.0,0.0,0.0,-20.0,0.0,0.0,0.0,0.0,0.0,0.0,0.0,0.0,0.0,0.0,0.0,0.0,0.0,0.0,10.995743751525879,0.0,0.0,-0.03550470992922783,0.0,0.0,-16384.0,0.0,0.0,-266.6358337402344,44.17386245727539,-8.583123207092285,0.0
1731876353210.0,0.0,0.0,-20.0,0.0,0.0,0.0,0.0,0.0,0.0,0.0,0.0,0.0,0.0,0.0,0.0,0.0,0.0,10.955058097839355,0.0,0.0,-0.039987530559301376,0.0,0.0,-16384.0,0.0,0.0,-300.3012390136719,44.1799430847168,-8.551753997802734,0.0
1731876353261.0,0.0,0.0,-20.0,0.0,0.0,0.0,0.0,0.0,0.0,0.0,0.0,0.0,0.0,0.0,0.0,0.0,0.0,10.852952003479004,0.0,0.0,-0.05356327444314957,0.0,0.0,-16384.0,0.0,0.0,-402.25335693359375,44.19511413574219,-8.473007202148438,0.0
1731876353278.0,0.0,0.0,-20.0,0.0,0.0,0.0,0.0,0.0,0.0,0.0,0.0,0.0,0.0,0.0,0.0,0.0,0.0,10.791572570800781,0.0,0.0,-0.05810939520597458,0.0,0.0,-16384.0,0.0,0.0,-436.3941345214844,44.204166412353516,-8.425657272338867,0.0
1731876353294.0,0.0,0.0,-20.0,0.0,0.0,0.0,0.0,0.0,0.0,0.0,0.0,0.0,0.0,0.0,0.0,0.0,0.0,10.724983215332031,0.0,0.0,-0.06254097819328308,0.0,0.0,-16384.0,0.0,0.0,-469.67474365234375,44.21392822265625,-8.37427806854248,0.0
1731876353311.0,0.0,0.0,-20.0,0.0,0.0,0.0,0.0,0.0,0.0,0.0,0.0,0.0,0.0,0.0,0.0,0.0,0.0,10.653315544128418,0.0,0.0,-0.06703673303127289,0.0,0.0,-16384.0,0.0,0.0,-503.43731689453125,44.224369049072266,-8.31896686553955,0.0
1731876353361.0,0.0,0.0,-20.0,0.0,0.0,0.0,0.0,0.0,0.0,0.0,0.0,0.0,0.0,0.0,0.0,0.0,0.0,10.489553451538086,0.0,0.0,-0.08024448901414871,0.0,0.0,-16384.0,0.0,0.0,-602.6258544921875,44.24796676635742,-8.19253158569336,0.0
1731876353378.0,0.0,0.0,-20.0,0.0,0.0,0.0,0.0,0.0,0.0,0.0,0.0,0.0,0.0,0.0,0.0,0.0,0.0,10.397599220275879,0.0,0.0,-0.08467334508895874,0.0,0.0,-16384.0,0.0,0.0,-635.885986328125,44.26105499267578,-8.12150764465332,0.0
1731876353394.0,0.0,0.0,-20.0,0.0,0.0,0.0,0.0,0.0,0.0,0.0,0.0,0.0,0.0,0.0,0.0,0.0,0.0,10.30057144165039,0.0,0.0,-0.0889987200498581,0.0,0.0,-16384.0,0.0,0.0,-668.3690185546875,44.27474594116211,-8.046541213989258,0.0
1731876353411.0,0.0,0.0,-20.0,0.0,0.0,0.0,0.0,0.0,0.0,0.0,0.0,0.0,0.0,0.0,0.0,0.0,0.0,10.198586463928223,0.0,0.0,-0.09331532567739487,0.0,0.0,-16384.0,0.0,0.0,-700.7861938476562,44.28900146484375,-7.967720985412598,0.0
1731876353445.0,0.0,0.0,-20.0,0.0,0.0,0.0,0.0,0.0,0.0,0.0,0.0,0.0,0.0,0.0,0.0,0.0,0.0,10.091654777526855,0.0,0.0,-0.10199414193630219,0.0,0.0,-16384.0,0.0,0.0,-765.9629516601562,44.30379104614258,-7.885050296783447,0.0
1731876353478.0,0.0,0.0,-20.0,0.0,0.0,0.0,0.0,0.0,0.0,0.0,0.0,0.0,0.0,0.0,0.0,0.0,0.0,9.853084564208984,0.0,0.0,-0.11040288954973221,0.0,0.0,-16384.0,0.0,0.0,-829.111572265625,44.336238861083984,-7.7005085945129395,0.0
1731876353494.0,0.0,0.0,-20.0,0.0,0.0,0.0,0.0,0.0,0.0,0.0,0.0,0.0,0.0,0.0,0.0,0.0,0.0,9.726572036743164,0.0,0.0,-0.11444032192230225,0.0,0.0,-16384.0,0.0,0.0,-859.4321899414062,44.35313415527344,-7.602593421936035,0.0
1731876353511.0,0.0,0.0,-20.0,0.0,0.0,0.0,0.0,0.0,0.0,0.0,0.0,0.0,0.0,0.0,0.0,0.0,0.0,9.595433235168457,0.0,0.0,-0.1186445951461792,0.0,0.0,-16384.0,0.0,0.0,-891.0057373046875,44.370418548583984,-7.501057147979736,0.0
1731876353544.0,0.0,0.0,-20.0,0.0,0.0,0.0,0.0,0.0,0.0,0.0,0.0,0.0,0.0,0.0,0.0,0.0,0.0,9.459476470947266,0.0,0.0,-0.1268758922815323,0.0,0.0,-16384.0,0.0,0.0,-952.8217163085938,44.38809585571289,-7.395749568939209,0.0
1731876353561.0,0.0,0.0,-20.0,0.0,0.0,0.0,0.0,0.0,0.0,0.0,0.0,0.0,0.0,0.0,0.0,0.0,0.0,9.314087867736816,0.0,0.0,-0.1309460699558258,0.0,0.0,-16384.0,0.0,0.0,-983.3882446289062,44.406715393066406,-7.2830915451049805,0.0
1731876353594.0,0.0,0.0,-20.0,0.0,0.0,0.0,0.0,0.0,0.0,0.0,0.0,0.0,0.0,0.0,0.0,0.0,0.0,9.009408950805664,0.0,0.0,-0.13888785243034363,0.0,0.0,-16384.0,0.0,0.0,-1043.030029296875,44.44481658935547,-7.046850204467773,0.0
1731876353594.0,0.0,0.0,-20.0,0.0,0.0,0.0,0.0,0.0,0.0,0.0,0.0,0.0,0.0,0.0,0.0,0.0,0.0,9.009408950805664,0.0,0.0,-0.13888785243034363,0.0,0.0,-16384.0,0.0,0.0,-1043.030029296875,44.44481658935547,-7.046850204467773,0.0
1731876353645.0,0.0,0.0,-20.0,0.0,0.0,0.0,0.0,0.0,0.0,0.0,0.0,0.0,0.0,0.0,0.0,0.0,0.0,8.686569213867188,0.0,0.0,-0.15058086812496185,0.0,0.0,-16384.0,0.0,0.0,-1130.8431396484375,44.48381805419922,-6.796309947967529,0.0
1731876353661.0,0.0,0.0,-20.0,0.0,0.0,0.0,0.0,0.0,0.0,0.0,0.0,0.0,0.0,0.0,0.0,0.0,0.0,8.51401424407959,0.0,0.0,-0.15437284111976624,0.0,0.0,-16384.0,0.0,0.0,-1159.3203125,44.504085540771484,-6.662309646606445,0.0
1731876353695.0,0.0,0.0,-20.0,0.0,0.0,0.0,0.0,0.0,0.0,0.0,0.0,0.0,0.0,0.0,0.0,0.0,0.0,8.155875205993652,0.0,0.0,-0.16189582645893097,0.0,0.0,-16384.0,0.0,0.0,-1215.8170166015625,44.54486083984375,-6.383998870849609,0.0
1731876353695.0,0.0,0.0,-20.0,0.0,0.0,0.0,0.0,0.0,0.0,0.0,0.0,0.0,0.0,0.0,0.0,0.0,0.0,8.155875205993652,0.0,0.0,-0.16189582645893097,0.0,0.0,-16384.0,0.0,0.0,-1215.8170166015625,44.54486083984375,-6.383998870849609,0.0
1731876353745.0,0.0,0.0,-20.0,0.0,0.0,0.0,0.0,0.0,0.0,0.0,0.0,0.0,0.0,0.0,0.0,0.0,0.0,7.780640602111816,0.0,0.0,-0.17279136180877686,0.0,0.0,-16384.0,0.0,0.0,-1297.64111328125,44.58571243286133,-6.092136383056641,0.0
1731876353762.0,0.0,0.0,-20.0,0.0,0.0,0.0,0.0,0.0,0.0,0.0,0.0,0.0,0.0,0.0,0.0,0.0,0.0,7.582636833190918,0.0,0.0,-0.17633691430091858,0.0,0.0,-16384.0,0.0,0.0,-1324.2677001953125,44.606502532958984,-5.938020706176758,0.0
1731876353795.0,0.0,0.0,-20.0,0.0,0.0,0.0,0.0,0.0,0.0,0.0,0.0,0.0,0.0,0.0,0.0,0.0,0.0,7.174597263336182,0.0,0.0,-0.18326662480831146,0.0,0.0,-16384.0,0.0,0.0,-1376.3089599609375,44.64765548706055,-5.620201587677002,0.0
1731876353795.0,0.0,0.0,-20.0,0.0,0.0,0.0,0.0,0.0,0.0,0.0,0.0,0.0,0.0,0.0,0.0,0.0,0.0,7.174597263336182,0.0,0.0,-0.18326662480831146,0.0,0.0,-16384.0,0.0,0.0,-1376.3089599609375,44.64765548706055,-5.620201587677002,0.0
1731876353811.0,0.0,0.0,-20.0,0.0,0.0,0.0,0.0,0.0,0.0,0.0,0.0,0.0,0.0,0.0,0.0,0.0,0.0,6.9645891189575195,0.0,0.0,-0.18657541275024414,0.0,0.0,-16384.0,0.0,0.0,-1401.157470703125,44.6679573059082,-5.456514835357666,0.0
1731876353861.0,0.0,0.0,-20.0,0.0,0.0,0.0,0.0,0.0,0.0,0.0,0.0,0.0,0.0,0.0,0.0,0.0,0.0,6.529372692108154,0.0,0.0,-0.19643549621105194,0.0,0.0,-16384.0,0.0,0.0,-1475.2054443359375,44.7081184387207,-5.1170654296875,0.0
1731876353878.0,0.0,0.0,-20.0,0.0,0.0,0.0,0.0,0.0,0.0,0.0,0.0,0.0,0.0,0.0,0.0,0.0,0.0,6.304275035858154,0.0,0.0,-0.19965218007564545,0.0,0.0,-16384.0,0.0,0.0,-1499.3624267578125,44.727874755859375,-4.941380977630615,0.0
1731876353895.0,0.0,0.0,-20.0,0.0,0.0,0.0,0.0,0.0,0.0,0.0,0.0,0.0,0.0,0.0,0.0,0.0,0.0,6.075490474700928,0.0,0.0,-0.2027326226234436,0.0,0.0,-16384.0,0.0,0.0,-1522.49609375,44.747249603271484,-4.762742042541504,0.0
1731876353912.0,0.0,0.0,-20.0,0.0,0.0,0.0,0.0,0.0,0.0,0.0,0.0,0.0,0.0,0.0,0.0,0.0,0.0,5.843175888061523,0.0,0.0,-0.20582462847232819,0.0,0.0,-16384.0,0.0,0.0,-1545.7166748046875,44.76619338989258,-4.581268787384033,0.0
1731876353945.0,0.0,0.0,-20.0,0.0,0.0,0.0,0.0,0.0,0.0,0.0,0.0,0.0,0.0,0.0,0.0,0.0,0.0,5.607317924499512,0.0,0.0,-0.21181122958660126,0.0,0.0,-16384.0,0.0,0.0,-1590.67529296875,44.784671783447266,-4.396950721740723,0.0
1731876353978.0,0.0,0.0,-20.0,0.0,0.0,0.0,0.0,0.0,0.0,0.0,0.0,0.0,0.0,0.0,0.0,0.0,0.0,5.118590831756592,0.0,0.0,-0.21749776601791382,0.0,0.0,-16384.0,0.0,0.0,-1633.3804931640625,44.8205451965332,-4.014786720275879,0.0
1731876353995.0,0.0,0.0,-20.0,0.0,0.0,0.0,0.0,0.0,0.0,0.0,0.0,0.0,0.0,0.0,0.0,0.0,0.0,4.869356632232666,0.0,0.0,-0.2202715277671814,0.0,0.0,-16384.0,0.0,0.0,-1654.2110595703125,44.83758544921875,-3.819782257080078,0.0
1731876354012.0,0.0,0.0,-20.0,0.0,0.0,0.0,0.0,0.0,0.0,0.0,0.0,0.0,0.0,0.0,0.0,0.0,0.0,4.616944313049316,0.0,0.0,-0.22297389805316925,0.0,0.0,-16384.0,0.0,0.0,-1674.5054931640625,44.853981018066406,-3.6222167015075684,0.0
1731876354045.0,0.0,0.0,-20.0,0.0,0.0,0.0,0.0,0.0,0.0,0.0,0.0,0.0,0.0,0.0,0.0,0.0,0.0,4.361434459686279,0.0,0.0,-0.22821085155010223,0.0,0.0,-16384.0,0.0,0.0,-1713.8343505859375,44.869686126708984,-3.4221556186676025,0.0
1731876354061.0,0.0,0.0,-20.0,0.0,0.0,0.0,0.0,0.0,0.0,0.0,0.0,0.0,0.0,0.0,0.0,0.0,0.0,4.099924087524414,0.0,0.0,-0.23067939281463623,0.0,0.0,-16384.0,0.0,0.0,-1732.372802734375,44.88483810424805,-3.2173256874084473,0.0
1731876354095.0,0.0,0.0,-20.0,0.0,0.0,0.0,0.0,0.0,0.0,0.0,0.0,0.0,0.0,0.0,0.0,0.0,0.0,3.5684471130371094,0.0,0.0,-0.23551692068576813,0.0,0.0,-16384.0,0.0,0.0,-1768.7020263671875,44.91275405883789,-2.800840377807617,0.0
1731876354095.0,0.0,0.0,-20.0,0.0,0.0,0.0,0.0,0.0,0.0,0.0,0.0,0.0,0.0,0.0,0.0,0.0,0.0,3.5684471130371094,0.0,0.0,-0.23551692068576813,0.0,0.0,-16384.0,0.0,0.0,-1768.7020263671875,44.91275405883789,-2.800840377807617,0.0
1731876354145.0,0.0,0.0,-20.0,0.0,0.0,0.0,0.0,0.0,0.0,0.0,0.0,0.0,0.0,0.0,0.0,0.0,0.0,3.0260322093963623,0.0,0.0,-0.2422812432050705,0.0,0.0,-16384.0,0.0,0.0,-1819.501220703125,44.937255859375,-2.375535726547241,0.0
1731876354162.0,0.0,0.0,-20.0,0.0,0.0,0.0,0.0,0.0,0.0,0.0,0.0,0.0,0.0,0.0,0.0,0.0,0.0,2.7483983039855957,0.0,0.0,-0.24443288147449493,0.0,0.0,-16384.0,0.0,0.0,-1835.65966796875,44.948238372802734,-2.157759189605713,0.0
1731876354195.0,0.0,0.0,-20.0,0.0,0.0,0.0,0.0,0.0,0.0,0.0,0.0,0.0,0.0,0.0,0.0,0.0,0.0,2.185856342315674,0.0,0.0,-0.24844029545783997,0.0,0.0,-16384.0,0.0,0.0,-1865.7548828125,44.967254638671875,-1.71635103225708,0.0
1731876354195.0,0.0,0.0,-20.0,0.0,0.0,0.0,0.0,0.0,0.0,0.0,0.0,0.0,0.0,0.0,0.0,0.0,0.0,2.185856342315674,0.0,0.0,-0.24844029545783997,0.0,0.0,-16384.0,0.0,0.0,-1865.7548828125,44.967254638671875,-1.71635103225708,0.0
1731876354212.0,0.0,0.0,-20.0,0.0,0.0,0.0,0.0,0.0,0.0,0.0,0.0,0.0,0.0,0.0,0.0,0.0,0.0,1.9011646509170532,0.0,0.0,-0.2504318356513977,0.0,0.0,-16384.0,0.0,0.0,-1880.7110595703125,44.9752311706543,-1.4928972721099854,0.0
1731876354262.0,0.0,0.0,-20.0,0.0,0.0,0.0,0.0,0.0,0.0,0.0,0.0,0.0,0.0,0.0,0.0,0.0,0.0,1.323065161705017,0.0,0.0,-0.2557089030742645,0.0,0.0,-16384.0,0.0,0.0,-1920.3411865234375,44.98800277709961,-1.0390405654907227,0.0
1731876354278.0,0.0,0.0,-20.0,0.0,0.0,0.0,0.0,0.0,0.0,0.0,0.0,0.0,0.0,0.0,0.0,0.0,0.0,1.0300443172454834,0.0,0.0,-0.2573484778404236,0.0,0.0,-16384.0,0.0,0.0,-1932.6541748046875,44.99272918701172,-0.8089513778686523,0.0
1731876354295.0,0.0,0.0,-20.0,0.0,0.0,0.0,0.0,0.0,0.0,0.0,0.0,0.0,0.0,0.0,0.0,0.0,0.0,0.7351445555686951,0.0,0.0,-0.25891610980033875,0.0,0.0,-16384.0,0.0,0.0,-1944.4268798828125,44.99629592895508,-0.5773653388023376,0.0
1731876354312.0,0.0,0.0,-20.0,0.0,0.0,0.0,0.0,0.0,0.0,0.0,0.0,0.0,0.0,0.0,0.0,0.0,0.0,0.43844860792160034,0.0,0.0,-0.260400652885437,0.0,0.0,-16384.0,0.0,0.0,-1955.57568359375,44.99868392944336,-0.3443533778190613,0.0
1731876354362.0,0.0,0.0,-20.0,0.0,0.0,0.0,0.0,0.0,0.0,0.0,0.0,0.0,0.0,0.0,0.0,0.0,0.0,-0.161529541015625,0.0,0.0,-0.2644628584384918,0.0,0.0,-16384.0,0.0,0.0,-1986.082275390625,44.999820709228516,0.12686485052108765,0.0
1731876354378.0,0.0,0.0,-20.0,0.0,0.0,0.0,0.0,0.0,0.0,0.0,0.0,0.0,0.0,0.0,0.0,0.0,0.0,-0.464569091796875,0.0,0.0,-0.265642911195755,0.0,0.0,-16384.0,0.0,0.0,-1994.9443359375,44.9985237121582,0.3648677170276642,0.0
1731876354395.0,0.0,0.0,-20.0,0.0,0.0,0.0,0.0,0.0,0.0,0.0,0.0,0.0,0.0,0.0,0.0,0.0,0.0,-0.76898193359375,0.0,0.0,-0.266763299703598,0.0,0.0,-16384.0,0.0,0.0,-2003.3582763671875,44.995948791503906,0.6039388179779053,0.0
1731876354412.0,0.0,0.0,-20.0,0.0,0.0,0.0,0.0,0.0,0.0,0.0,0.0,0.0,0.0,0.0,0.0,0.0,0.0,-1.074676513671875,0.0,0.0,-0.2678583562374115,0.0,0.0,-16384.0,0.0,0.0,-2011.58203125,44.99208450317383,0.8439995646476746,0.0
1731876354446.0,0.0,0.0,-20.0,0.0,0.0,0.0,0.0,0.0,0.0,0.0,0.0,0.0,0.0,0.0,0.0,0.0,0.0,-1.381622314453125,0.0,0.0,-0.269732803106308,0.0,0.0,-16384.0,0.0,0.0,-2025.658935546875,44.986915588378906,1.085018515586853,0.0
1731876354479.0,0.0,0.0,-20.0,0.0,0.0,0.0,0.0,0.0,0.0,0.0,0.0,0.0,0.0,0.0,0.0,0.0,0.0,-2.000732421875,0.0,0.0,-0.27128317952156067,0.0,0.0,-16384.0,0.0,0.0,-2037.302001953125,44.972564697265625,1.571052074432373,0.0
1731876354495.0,0.0,0.0,-20.0,0.0,0.0,0.0,0.0,0.0,0.0,0.0,0.0,0.0,0.0,0.0,0.0,0.0,0.0,-2.311614990234375,0.0,0.0,-0.2719557583332062,0.0,0.0,-16384.0,0.0,0.0,-2042.35302734375,44.96337890625,1.8150455951690674,0.0
1731876354512.0,0.0,0.0,-20.0,0.0,0.0,0.0,0.0,0.0,0.0,0.0,0.0,0.0,0.0,0.0,0.0,0.0,0.0,-2.62322998046875,0.0,0.0,-0.27255958318710327,0.0,0.0,-16384.0,0.0,0.0,-2046.8876953125,44.952842712402344,2.0595602989196777,0.0
1731876354546.0,0.0,0.0,-20.0,0.0,0.0,0.0,0.0,0.0,0.0,0.0,0.0,0.0,0.0,0.0,0.0,0.0,0.0,-2.935577392578125,0.0,0.0,-0.27353522181510925,0.0,0.0,-16384.0,0.0,0.0,-2054.214599609375,44.940948486328125,2.3045883178710938,0.0
1731876354579.0,0.0,0.0,-20.0,0.0,0.0,0.0,0.0,0.0,0.0,0.0,0.0,0.0,0.0,0.0,0.0,0.0,0.0,-3.562896728515625,0.0,0.0,-0.27419525384902954,0.0,0.0,-16384.0,0.0,0.0,-2059.17138671875,44.91302490234375,2.7964894771575928,0.0
1731876354595.0,0.0,0.0,-20.0,0.0,0.0,0.0,0.0,0.0,0.0,0.0,0.0,0.0,0.0,0.0,0.0,0.0,0.0,-3.8770751953125,0.0,0.0,-0.27441829442977905,0.0,0.0,-16384.0,0.0,0.0,-2060.846435546875,44.89701461791992,3.042724370956421,0.0
1731876354595.0,0.0,0.0,-20.0,0.0,0.0,0.0,0.0,0.0,0.0,0.0,0.0,0.0,0.0,0.0,0.0,0.0,0.0,-3.8770751953125,0.0,0.0,-0.27441829442977905,0.0,0.0,-16384.0,0.0,0.0,-2060.846435546875,44.89701461791992,3.042724370956421,0.0
1731876354645.0,0.0,0.0,-20.0,0.0,0.0,0.0,0.0,0.0,0.0,0.0,0.0,0.0,0.0,0.0,0.0,0.0,0.0,-4.50616455078125,0.0,0.0,-0.27461951971054077,0.0,0.0,-16384.0,0.0,0.0,-2062.357421875,44.86090087890625,3.5354859828948975,0.0
1731876354662.0,0.0,0.0,-20.0,0.0,0.0,0.0,0.0,0.0,0.0,0.0,0.0,0.0,0.0,0.0,0.0,0.0,0.0,-4.82086181640625,0.0,0.0,-0.27453500032424927,0.0,0.0,-16384.0,0.0,0.0,-2061.722900390625,44.84080505371094,3.781830310821533,0.0
1731876354695.0,0.0,0.0,-20.0,0.0,0.0,0.0,0.0,0.0,0.0,0.0,0.0,0.0,0.0,0.0,0.0,0.0,0.0,-5.449859619140625,0.0,0.0,-0.27413633465766907,0.0,0.0,-16384.0,0.0,0.0,-2058.728759765625,44.79658508300781,4.273858547210693,0.0
1731876354695.0,0.0,0.0,-20.0,0.0,0.0,0.0,0.0,0.0,0.0,0.0,0.0,0.0,0.0,0.0,0.0,0.0,0.0,-5.449859619140625,0.0,0.0,-0.27413633465766907,0.0,0.0,-16384.0,0.0,0.0,-2058.728759765625,44.79658508300781,4.273858547210693,0.0
1731876354712.0,0.0,0.0,-20.0,0.0,0.0,0.0,0.0,0.0,0.0,0.0,0.0,0.0,0.0,0.0,0.0,0.0,0.0,-5.764007568359375,0.0,0.0,-0.27382171154022217,0.0,0.0,-16384.0,0.0,0.0,-2056.365966796875,44.77248001098633,4.519408702850342,0.0
1731876354762.0,0.0,0.0,-20.0,0.0,0.0,0.0,0.0,0.0,0.0,0.0,0.0,0.0,0.0,0.0,0.0,0.0,0.0,-6.390594482421875,0.0,0.0,-0.27242740988731384,0.0,0.0,-16384.0,0.0,0.0,-2045.89501953125,44.72037887573242,5.008760929107666,0.0
1731876354778.0,0.0,0.0,-20.0,0.0,0.0,0.0,0.0,0.0,0.0,0.0,0.0,0.0,0.0,0.0,0.0,0.0,0.0,-6.7027587890625,0.0,0.0,-0.27181312441825867,0.0,0.0,-16384.0,0.0,0.0,-2041.2818603515625,44.69242477416992,5.252335548400879,0.0
1731876354795.0,0.0,0.0,-20.0,0.0,0.0,0.0,0.0,0.0,0.0,0.0,0.0,0.0,0.0,0.0,0.0,0.0,0.0,-7.01422119140625,0.0,0.0,-0.2711159288883209,0.0,0.0,-16384.0,0.0,0.0,-2036.0460205078125,44.66321563720703,5.495206356048584,0.0
1731876354812.0,0.0,0.0,-20.0,0.0,0.0,0.0,0.0,0.0,0.0,0.0,0.0,0.0,0.0,0.0,0.0,0.0,0.0,-7.324920654296875,0.0,0.0,-0.2703423500061035,0.0,0.0,-16384.0,0.0,0.0,-2030.236572265625,44.63275909423828,5.737321376800537,0.0
1731876354845.0,0.0,0.0,-20.0,0.0,0.0,0.0,0.0,0.0,0.0,0.0,0.0,0.0,0.0,0.0,0.0,0.0,0.0,-7.63470458984375,0.0,0.0,-0.26858094334602356,0.0,0.0,-16384.0,0.0,0.0,-2017.008544921875,44.6010856628418,5.9785542488098145,0.0
1731876354879.0,0.0,0.0,-20.0,0.0,0.0,0.0,0.0,0.0,0.0,0.0,0.0,0.0,0.0,0.0,0.0,0.0,0.0,-8.249114990234375,0.0,0.0,-0.26650914549827576,0.0,0.0,-16384.0,0.0,0.0,-2001.4495849609375,44.5344123840332,6.456480026245117,0.0
1731876354896.0,0.0,0.0,-20.0,0.0,0.0,0.0,0.0,0.0,0.0,0.0,0.0,0.0,0.0,0.0,0.0,0.0,0.0,-8.55450439453125,0.0,0.0,-0.2653457820415497,0.0,0.0,-16384.0,0.0,0.0,-1992.712890625,44.499366760253906,6.693758487701416,0.0
1731876354896.0,0.0,0.0,-20.0,0.0,0.0,0.0,0.0,0.0,0.0,0.0,0.0,0.0,0.0,0.0,0.0,0.0,0.0,-8.55450439453125,0.0,0.0,-0.2653457820415497,0.0,0.0,-16384.0,0.0,0.0,-1992.712890625,44.499366760253906,6.693758487701416,0.0
1731876354946.0,0.0,0.0,-20.0,0.0,0.0,0.0,0.0,0.0,0.0,0.0,0.0,0.0,0.0,0.0,0.0,0.0,0.0,-9.1612548828125,0.0,0.0,-0.26147574186325073,0.0,0.0,-16384.0,0.0,0.0,-1963.6494140625,44.425987243652344,7.164612770080566,0.0
1731876354963.0,0.0,0.0,-20.0,0.0,0.0,0.0,0.0,0.0,0.0,0.0,0.0,0.0,0.0,0.0,0.0,0.0,0.0,-9.460906982421875,0.0,0.0,-0.2600346505641937,0.0,0.0,-16384.0,0.0,0.0,-1952.8270263671875,44.387908935546875,7.3968586921691895,0.0
1731876354995.0,0.0,0.0,-20.0,0.0,0.0,0.0,0.0,0.0,0.0,0.0,0.0,0.0,0.0,0.0,0.0,0.0,0.0,-10.05517578125,0.0,0.0,-0.2570175230503082,0.0,0.0,-16384.0,0.0,0.0,-1930.1688232421875,44.30880355834961,7.856841087341309,0.0
1731876354995.0,0.0,0.0,-20.0,0.0,0.0,0.0,0.0,0.0,0.0,0.0,0.0,0.0,0.0,0.0,0.0,0.0,0.0,-10.05517578125,0.0,0.0,-0.2570175230503082,0.0,0.0,-16384.0,0.0,0.0,-1930.1688232421875,44.30880355834961,7.856841087341309,0.0
1731876355046.0,0.0,0.0,-20.0,0.0,0.0,0.0,0.0,0.0,0.0,0.0,0.0,0.0,0.0,0.0,0.0,0.0,0.0,-10.64227294921875,0.0,0.0,-0.2518140375614166,0.0,0.0,-16384.0,0.0,0.0,-1891.09130859375,44.22597122192383,8.310443878173828,0.0
1731876355062.0,0.0,0.0,-20.0,0.0,0.0,0.0,0.0,0.0,0.0,0.0,0.0,0.0,0.0,0.0,0.0,0.0,0.0,-10.93084716796875,0.0,0.0,-0.2499389499425888,0.0,0.0,-16384.0,0.0,0.0,-1877.0096435546875,44.183555603027344,8.533084869384766,0.0
1731876355079.0,0.0,0.0,-20.0,0.0,0.0,0.0,0.0,0.0,0.0,0.0,0.0,0.0,0.0,0.0,0.0,0.0,0.0,-11.217254638671875,0.0,0.0,-0.24801507592201233,0.0,0.0,-16384.0,0.0,0.0,-1862.5615234375,44.14034652709961,8.753839492797852,0.0
1731876355096.0,0.0,0.0,-20.0,0.0,0.0,0.0,0.0,0.0,0.0,0.0,0.0,0.0,0.0,0.0,0.0,0.0,0.0,-11.50146484375,0.0,0.0,-0.24600793421268463,0.0,0.0,-16384.0,0.0,0.0,-1847.4881591796875,44.09638214111328,8.972684860229492,0.0
1731876355112.0,0.0,0.0,-20.0,0.0,0.0,0.0,0.0,0.0,0.0,0.0,0.0,0.0,0.0,0.0,0.0,0.0,0.0,-11.783355712890625,0.0,0.0,-0.24393969774246216,0.0,0.0,-16384.0,0.0,0.0,-1831.9559326171875,44.05170440673828,9.189526557922363,0.0
1731876355163.0,0.0,0.0,-20.0,0.0,0.0,0.0,0.0,0.0,0.0,0.0,0.0,0.0,0.0,0.0,0.0,0.0,0.0,-12.337432861328125,0.0,0.0,-0.23729726672172546,0.0,0.0,-16384.0,0.0,0.0,-1782.0721435546875,43.960777282714844,9.615090370178223,0.0
1731876355179.0,0.0,0.0,-20.0,0.0,0.0,0.0,0.0,0.0,0.0,0.0,0.0,0.0,0.0,0.0,0.0,0.0,0.0,-12.609344482421875,0.0,0.0,-0.23496945202350616,0.0,0.0,-16384.0,0.0,0.0,-1764.590576171875,43.91465377807617,9.8236083984375,0.0
1731876355196.0,0.0,0.0,-20.0,0.0,0.0,0.0,0.0,0.0,0.0,0.0,0.0,0.0,0.0,0.0,0.0,0.0,0.0,-12.87860107421875,0.0,0.0,-0.2325769066810608,0.0,0.0,-16384.0,0.0,0.0,-1746.622802734375,43.868003845214844,10.02987289428711,0.0
1731876355212.0,0.0,0.0,-20.0,0.0,0.0,0.0,0.0,0.0,0.0,0.0,0.0,0.0,0.0,0.0,0.0,0.0,0.0,-13.145111083984375,0.0,0.0,-0.23011110723018646,0.0,0.0,-16384.0,0.0,0.0,-1728.10498046875,43.82087326049805,10.233814239501953,0.0
1731876355262.0,0.0,0.0,-20.0,0.0,0.0,0.0,0.0,0.0,0.0,0.0,0.0,0.0,0.0,0.0,0.0,0.0,0.0,-13.666534423828125,0.0,0.0,-0.22233320772647858,0.0,0.0,-16384.0,0.0,0.0,-1669.6939697265625,43.72592544555664,10.632179260253906,0.0
1731876355279.0,0.0,0.0,-20.0,0.0,0.0,0.0,0.0,0.0,0.0,0.0,0.0,0.0,0.0,0.0,0.0,0.0,0.0,-13.92132568359375,0.0,0.0,-0.21965639293193817,0.0,0.0,-16384.0,0.0,0.0,-1649.5914306640625,43.67821502685547,10.826519966125488,0.0
1731876355296.0,0.0,0.0,-20.0,0.0,0.0,0.0,0.0,0.0,0.0,0.0,0.0,0.0,0.0,0.0,0.0,0.0,0.0,-14.17303466796875,0.0,0.0,-0.21681751310825348,0.0,0.0,-16384.0,0.0,0.0,-1628.2718505859375,43.63022994995117,11.018299102783203,0.0
1731876355313.0,0.0,0.0,-20.0,0.0,0.0,0.0,0.0,0.0,0.0,0.0,0.0,0.0,0.0,0.0,0.0,0.0,0.0,-14.421478271484375,0.0,0.0,-0.21398933231830597,0.0,0.0,-16384.0,0.0,0.0,-1607.0325927734375,43.58204650878906,11.207383155822754,0.0
1731876355346.0,0.0,0.0,-20.0,0.0,0.0,0.0,0.0,0.0,0.0,0.0,0.0,0.0,0.0,0.0,0.0,0.0,0.0,-14.66668701171875,0.0,0.0,-0.20810216665267944,0.0,0.0,-16384.0,0.0,0.0,-1562.8206787109375,43.53368377685547,11.393798828125,0.0
1731876355363.0,0.0,0.0,-20.0,0.0,0.0,0.0,0.0,0.0,0.0,0.0,0.0,0.0,0.0,0.0,0.0,0.0,0.0,-14.905181884765625,0.0,0.0,-0.20510956645011902,0.0,0.0,-16384.0,0.0,0.0,-1540.3466796875,43.485877990722656,11.574909210205078,0.0
1731876355396.0,0.0,0.0,-20.0,0.0,0.0,0.0,0.0,0.0,0.0,0.0,0.0,0.0,0.0,0.0,0.0,0.0,0.0,-15.371673583984375,0.0,0.0,-0.19885283708572388,0.0,0.0,-16384.0,0.0,0.0,-1493.359375,43.39019775390625,11.928574562072754,0.0
1731876355396.0,0.0,0.0,-20.0,0.0,0.0,0.0,0.0,0.0,0.0,0.0,0.0,0.0,0.0,0.0,0.0,0.0,0.0,-15.371673583984375,0.0,0.0,-0.19885283708572388,0.0,0.0,-16384.0,0.0,0.0,-1493.359375,43.39019775390625,11.928574562072754,0.0
1731876355446.0,0.0,0.0,-20.0,0.0,0.0,0.0,0.0,0.0,0.0,0.0,0.0,0.0,0.0,0.0,0.0,0.0,0.0,-15.823883056640625,0.0,0.0,-0.18923674523830414,0.0,0.0,-16384.0,0.0,0.0,-1421.143798828125,43.294700622558594,12.270659446716309,0.0
1731876355463.0,0.0,0.0,-20.0,0.0,0.0,0.0,0.0,0.0,0.0,0.0,0.0,0.0,0.0,0.0,0.0,0.0,0.0,-16.04071044921875,0.0,0.0,-0.18584489822387695,0.0,0.0,-16384.0,0.0,0.0,-1395.6715087890625,43.24795150756836,12.43441390991211,0.0
1731876355479.0,0.0,0.0,-20.0,0.0,0.0,0.0,0.0,0.0,0.0,0.0,0.0,0.0,0.0,0.0,0.0,0.0,0.0,-16.253692626953125,0.0,0.0,-0.18250016868114471,0.0,0.0,-16384.0,0.0,0.0,-1370.552978515625,43.20143127441406,12.595088958740234,0.0
1731876355496.0,0.0,0.0,-20.0,0.0,0.0,0.0,0.0,0.0,0.0,0.0,0.0,0.0,0.0,0.0,0.0,0.0,0.0,-16.462799072265625,0.0,0.0,-0.17902998626232147,0.0,0.0,-16384.0,0.0,0.0,-1344.4923095703125,43.15517807006836,12.752674102783203,0.0
1731876355513.0,0.0,0.0,-20.0,0.0,0.0,0.0,0.0,0.0,0.0,0.0,0.0,0.0,0.0,0.0,0.0,0.0,0.0,-16.66796875,0.0,0.0,-0.1754835844039917,0.0,0.0,-16384.0,0.0,0.0,-1317.8592529296875,43.10923767089844,12.907125473022461,0.0
1731876355546.0,0.0,0.0,-20.0,0.0,0.0,0.0,0.0,0.0,0.0,0.0,0.0,0.0,0.0,0.0,0.0,0.0,0.0,-16.869049072265625,0.0,0.0,-0.16833406686782837,0.0,0.0,-16384.0,0.0,0.0,-1264.1673583984375,43.06367111206055,13.058337211608887,0.0
1731876355579.0,0.0,0.0,-20.0,0.0,0.0,0.0,0.0,0.0,0.0,0.0,0.0,0.0,0.0,0.0,0.0,0.0,0.0,-17.250701904296875,0.0,0.0,-0.1610376536846161,0.0,0.0,-16384.0,0.0,0.0,-1209.3721923828125,42.97573471069336,13.34489631652832,0.0
1731876355596.0,0.0,0.0,-20.0,0.0,0.0,0.0,0.0,0.0,0.0,0.0,0.0,0.0,0.0,0.0,0.0,0.0,0.0,-17.43524169921875,0.0,0.0,-0.15732237696647644,0.0,0.0,-16384.0,0.0,0.0,-1181.470947265625,42.93252944946289,13.483245849609375,0.0
1731876355613.0,0.0,0.0,-20.0,0.0,0.0,0.0,0.0,0.0,0.0,0.0,0.0,0.0,0.0,0.0,0.0,0.0,0.0,-17.615509033203125,0.0,0.0,-0.1534942388534546,0.0,0.0,-16384.0,0.0,0.0,-1152.72216796875,42.889896392822266,13.618256568908691,0.0
1731876355646.0,0.0,0.0,-20.0,0.0,0.0,0.0,0.0,0.0,0.0,0.0,0.0,0.0,0.0,0.0,0.0,0.0,0.0,-17.7913818359375,0.0,0.0,-0.14577849209308624,0.0,0.0,-16384.0,0.0,0.0,-1094.77783203125,42.84789276123047,13.749844551086426,0.0
1731876355680.0,0.0,0.0,-20.0,0.0,0.0,0.0,0.0,0.0,0.0,0.0,0.0,0.0,0.0,0.0,0.0,0.0,0.0,-18.12103271484375,0.0,0.0,-0.13795706629753113,0.0,0.0,-16384.0,0.0,0.0,-1036.0399169921875,42.76807403564453,13.996140480041504,0.0
1731876355696.0,0.0,0.0,-20.0,0.0,0.0,0.0,0.0,0.0,0.0,0.0,0.0,0.0,0.0,0.0,0.0,0.0,0.0,-18.279144287109375,0.0,0.0,-0.1339958757162094,0.0,0.0,-16384.0,0.0,0.0,-1006.2919311523438,42.729286193847656,14.114108085632324,0.0
1731876355696.0,0.0,0.0,-20.0,0.0,0.0,0.0,0.0,0.0,0.0,0.0,0.0,0.0,0.0,0.0,0.0,0.0,0.0,-18.279144287109375,0.0,0.0,-0.1339958757162094,0.0,0.0,-16384.0,0.0,0.0,-1006.2919311523438,42.729286193847656,14.114108085632324,0.0
1731876355746.0,0.0,0.0,-20.0,0.0,0.0,0.0,0.0,0.0,0.0,0.0,0.0,0.0,0.0,0.0,0.0,0.0,0.0,-18.58160400390625,0.0,0.0,-0.12179000675678253,0.0,0.0,-16384.0,0.0,0.0,-914.6273803710938,42.6541862487793,14.339475631713867,0.0
1731876355763.0,0.0,0.0,-20.0,0.0,0.0,0.0,0.0,0.0,0.0,0.0,0.0,0.0,0.0,0.0,0.0,0.0,0.0,-18.721160888671875,0.0,0.0,-0.11767175793647766,0.0,0.0,-16384.0,0.0,0.0,-883.6998901367188,42.61913299560547,14.44332504272461,0.0
1731876355796.0,0.0,0.0,-20.0,0.0,0.0,0.0,0.0,0.0,0.0,0.0,0.0,0.0,0.0,0.0,0.0,0.0,0.0,-18.986053466796875,0.0,0.0,-0.10933840274810791,0.0,0.0,-16384.0,0.0,0.0,-821.117431640625,42.551902770996094,14.640209197998047,0.0
1731876355796.0,0.0,0.0,-20.0,0.0,0.0,0.0,0.0,0.0,0.0,0.0,0.0,0.0,0.0,0.0,0.0,0.0,0.0,-18.986053466796875,0.0,0.0,-0.10933840274810791,0.0,0.0,-16384.0,0.0,0.0,-821.117431640625,42.551902770996094,14.640209197998047,0.0
1731876355846.0,0.0,0.0,-20.0,0.0,0.0,0.0,0.0,0.0,0.0,0.0,0.0,0.0,0.0,0.0,0.0,0.0,0.0,-19.231842041015625,0.0,0.0,-0.09661364555358887,0.0,0.0,-16384.0,0.0,0.0,-725.55615234375,42.488704681396484,14.822615623474121,0.0
1731876355863.0,0.0,0.0,-20.0,0.0,0.0,0.0,0.0,0.0,0.0,0.0,0.0,0.0,0.0,0.0,0.0,0.0,0.0,-19.342559814453125,0.0,0.0,-0.0923326164484024,0.0,0.0,-16384.0,0.0,0.0,-693.4061279296875,42.459983825683594,14.904690742492676,0.0
1731876355880.0,0.0,0.0,-20.0,0.0,0.0,0.0,0.0,0.0,0.0,0.0,0.0,0.0,0.0,0.0,0.0,0.0,0.0,-19.4483642578125,0.0,0.0,-0.08805789798498154,0.0,0.0,-16384.0,0.0,0.0,-661.3035888671875,42.43238830566406,14.983074188232422,0.0
1731876355896.0,0.0,0.0,-20.0,0.0,0.0,0.0,0.0,0.0,0.0,0.0,0.0,0.0,0.0,0.0,0.0,0.0,0.0,-19.54925537109375,0.0,0.0,-0.08366348594427109,0.0,0.0,-16384.0,0.0,0.0,-628.3020629882812,42.40593719482422,15.057769775390625,0.0
1731876355913.0,0.0,0.0,-20.0,0.0,0.0,0.0,0.0,0.0,0.0,0.0,0.0,0.0,0.0,0.0,0.0,0.0,0.0,-19.6451416015625,0.0,0.0,-0.07926137000322342,0.0,0.0,-16384.0,0.0,0.0,-595.2427368164062,42.38067626953125,15.128715515136719,0.0
1731876355963.0,0.0,0.0,-20.0,0.0,0.0,0.0,0.0,0.0,0.0,0.0,0.0,0.0,0.0,0.0,0.0,0.0,0.0,-19.81671142578125,0.0,0.0,-0.06605622172355652,0.0,0.0,-16384.0,0.0,0.0,-496.07379150390625,42.33518600463867,15.255556106567383,0.0
1731876355980.0,0.0,0.0,-20.0,0.0,0.0,0.0,0.0,0.0,0.0,0.0,0.0,0.0,0.0,0.0,0.0,0.0,0.0,-19.892425537109375,0.0,0.0,-0.06162182241678238,0.0,0.0,-16384.0,0.0,0.0,-462.7720031738281,42.31499099731445,15.311485290527344,0.0
1731876355996.0,0.0,0.0,-20.0,0.0,0.0,0.0,0.0,0.0,0.0,0.0,0.0,0.0,0.0,0.0,0.0,0.0,0.0,-19.9630126953125,0.0,0.0,-0.057219624519348145,0.0,0.0,-16384.0,0.0,0.0,-429.7120666503906,42.29609298706055,15.363606452941895,0.0
1731876356013.0,0.0,0.0,-20.0,0.0,0.0,0.0,0.0,0.0,0.0,0.0,0.0,0.0,0.0,0.0,0.0,0.0,0.0,-20.028594970703125,0.0,0.0,-0.05270330607891083,0.0,0.0,-16384.0,0.0,0.0,-395.79510498046875,42.278480529785156,15.412009239196777,0.0
1731876356046.0,0.0,0.0,-20.0,0.0,0.0,0.0,0.0,0.0,0.0,0.0,0.0,0.0,0.0,0.0,0.0,0.0,0.0,-20.0889892578125,0.0,0.0,-0.043660491704940796,0.0,0.0,-16384.0,0.0,0.0,-327.88470458984375,42.26221466064453,15.456564903259277,0.0
1731876356063.0,0.0,0.0,-20.0,0.0,0.0,0.0,0.0,0.0,0.0,0.0,0.0,0.0,0.0,0.0,0.0,0.0,0.0,-20.1390380859375,0.0,0.0,-0.0390869565308094,0.0,0.0,-16384.0,0.0,0.0,-293.5380554199219,42.248695373535156,15.493476867675781,0.0
1731876356096.0,0.0,0.0,-20.0,0.0,0.0,0.0,0.0,0.0,0.0,0.0,0.0,0.0,0.0,0.0,0.0,0.0,0.0,-20.223358154296875,0.0,0.0,-0.030007876455783844,0.0,0.0,-16384.0,0.0,0.0,-225.35531616210938,42.22584915161133,15.555634498596191,0.0
1731876356096.0,0.0,0.0,-20.0,0.0,0.0,0.0,0.0,0.0,0.0,0.0,0.0,0.0,0.0,0.0,0.0,0.0,0.0,-20.223358154296875,0.0,0.0,-0.030007876455783844,0.0,0.0,-16384.0,0.0,0.0,-225.35531616210938,42.22584915161133,15.555634498596191,0.0
1731876356113.0,0.0,0.0,-20.0,0.0,0.0,0.0,0.0,0.0,0.0,0.0,0.0,0.0,0.0,0.0,0.0,0.0,0.0,-20.25775146484375,0.0,0.0,-0.025438521057367325,0.0,0.0,-16384.0,0.0,0.0,-191.0400390625,42.21650314331055,15.580979347229004,0.0
1731876356163.0,0.0,0.0,-20.0,0.0,0.0,0.0,0.0,0.0,0.0,0.0,0.0,0.0,0.0,0.0,0.0,0.0,0.0,-20.305511474609375,0.0,0.0,-0.011776619590818882,0.0,0.0,-16384.0,0.0,0.0,-88.44091033935547,42.20349884033203,15.616164207458496,0.0
1731876356180.0,0.0,0.0,-20.0,0.0,0.0,0.0,0.0,0.0,0.0,0.0,0.0,0.0,0.0,0.0,0.0,0.0,0.0,-20.31903076171875,0.0,0.0,-0.007102756295353174,0.0,0.0,-16384.0,0.0,0.0,-53.34079360961914,42.19981384277344,15.626121520996094,0.0
1731876356213.0,0.0,0.0,-20.0,0.0,0.0,0.0,0.0,0.0,0.0,0.0,0.0,0.0,0.0,0.0,0.0,0.0,0.0,-20.330108642578125,0.0,0.0,0.0020318906754255295,0.0,0.0,-16384.0,0.0,0.0,15.259239196777344,42.19679260253906,15.634281158447266,0.0
1731876356213.0,0.0,0.0,-20.0,0.0,0.0,0.0,0.0,0.0,0.0,0.0,0.0,0.0,0.0,0.0,0.0,0.0,0.0,-20.330108642578125,0.0,0.0,0.0020318906754255295,0.0,0.0,-16384.0,0.0,0.0,15.259239196777344,42.19679260253906,15.634281158447266,0.0
1731876356263.0,0.0,0.0,-20.0,0.0,0.0,0.0,0.0,0.0,0.0,0.0,0.0,0.0,0.0,0.0,0.0,0.0,0.0,-20.3201904296875,0.0,0.0,0.015768324956297874,0.0,0.0,-16384.0,0.0,0.0,118.41810607910156,42.19949722290039,15.626976013183594,0.0
1731876356280.0,0.0,0.0,-20.0,0.0,0.0,0.0,0.0,0.0,0.0,0.0,0.0,0.0,0.0,0.0,0.0,0.0,0.0,-20.3021240234375,0.0,0.0,0.020334485918283463,0.0,0.0,-16384.0,0.0,0.0,152.7093963623047,42.20442199707031,15.613669395446777,0.0
1731876356297.0,0.0,0.0,-20.0,0.0,0.0,0.0,0.0,0.0,0.0,0.0,0.0,0.0,0.0,0.0,0.0,0.0,0.0,-20.27880859375,0.0,0.0,0.02491169422864914,0.0,0.0,-16384.0,0.0,0.0,187.08364868164062,42.21077346801758,15.596492767333984,0.0
1731876356313.0,0.0,0.0,-20.0,0.0,0.0,0.0,0.0,0.0,0.0,0.0,0.0,0.0,0.0,0.0,0.0,0.0,0.0,-20.250274658203125,0.0,0.0,0.029465269297361374,0.0,0.0,-16384.0,0.0,0.0,221.28041076660156,42.218536376953125,15.575469970703125,0.0
1731876356330.0,0.0,0.0,-20.0,0.0,0.0,0.0,0.0,0.0,0.0,0.0,0.0,0.0,0.0,0.0,0.0,0.0,0.0,-20.21649169921875,0.0,0.0,0.03402729704976082,0.0,0.0,-16384.0,0.0,0.0,255.5406494140625,42.22771072387695,15.550575256347656,0.0
1731876356380.0,0.0,0.0,-20.0,0.0,0.0,0.0,0.0,0.0,0.0,0.0,0.0,0.0,0.0,0.0,0.0,0.0,0.0,-20.128173828125,0.0,0.0,0.047634683549404144,0.0,0.0,-16384.0,0.0,0.0,357.7303771972656,42.25163269042969,15.485466003417969,0.0
1731876356397.0,0.0,0.0,-20.0,0.0,0.0,0.0,0.0,0.0,0.0,0.0,0.0,0.0,0.0,0.0,0.0,0.0,0.0,-20.0736083984375,0.0,0.0,0.05208523944020271,0.0,0.0,-16384.0,0.0,0.0,391.15350341796875,42.266361236572266,15.445219039916992,0.0
1731876356414.0,0.0,0.0,-20.0,0.0,0.0,0.0,0.0,0.0,0.0,0.0,0.0,0.0,0.0,0.0,0.0,0.0,0.0,-20.013916015625,0.0,0.0,0.05660366639494896,0.0,0.0,-16384.0,0.0,0.0,425.0863037109375,42.28242874145508,15.401175498962402,0.0
1731876356430.0,0.0,0.0,-20.0,0.0,0.0,0.0,0.0,0.0,0.0,0.0,0.0,0.0,0.0,0.0,0.0,0.0,0.0,-19.94903564453125,0.0,0.0,0.06104077398777008,0.0,0.0,-16384.0,0.0,0.0,458.4084167480469,42.299842834472656,15.353287696838379,0.0
1731876356480.0,0.0,0.0,-20.0,0.0,0.0,0.0,0.0,0.0,0.0,0.0,0.0,0.0,0.0,0.0,0.0,0.0,0.0,-19.798919677734375,0.0,0.0,0.0743761658668518,0.0,0.0,-16384.0,0.0,0.0,558.5554809570312,42.33992004394531,15.242408752441406,0.0
1731876356497.0,0.0,0.0,-20.0,0.0,0.0,0.0,0.0,0.0,0.0,0.0,0.0,0.0,0.0,0.0,0.0,0.0,0.0,-19.71368408203125,0.0,0.0,0.0788189172744751,0.0,0.0,-16384.0,0.0,0.0,591.9199829101562,42.362548828125,15.179405212402344,0.0
1731876356514.0,0.0,0.0,-20.0,0.0,0.0,0.0,0.0,0.0,0.0,0.0,0.0,0.0,0.0,0.0,0.0,0.0,0.0,-19.62335205078125,0.0,0.0,0.08317539840936661,0.0,0.0,-16384.0,0.0,0.0,624.6365966796875,42.38642883300781,15.11259651184082,0.0
1731876356530.0,0.0,0.0,-20.0,0.0,0.0,0.0,0.0,0.0,0.0,0.0,0.0,0.0,0.0,0.0,0.0,0.0,0.0,-19.528045654296875,0.0,0.0,0.08754072338342667,0.0,0.0,-16384.0,0.0,0.0,657.419677734375,42.4115104675293,15.042071342468262,0.0
1731876356564.0,0.0,0.0,-20.0,0.0,0.0,0.0,0.0,0.0,0.0,0.0,0.0,0.0,0.0,0.0,0.0,0.0,0.0,-19.427734375,0.0,0.0,0.09616533666849136,0.0,0.0,-16384.0,0.0,0.0,722.1893920898438,42.43777847290039,14.967795372009277,0.0
1731876356597.0,0.0,0.0,-20.0,0.0,0.0,0.0,0.0,0.0,0.0,0.0,0.0,0.0,0.0,0.0,0.0,0.0,0.0,-19.202423095703125,0.0,0.0,0.10472963750362396,0.0,0.0,-16384.0,0.0,0.0,786.5062255859375,42.49631118774414,14.800796508789062,0.0
1731876356614.0,0.0,0.0,-20.0,0.0,0.0,0.0,0.0,0.0,0.0,0.0,0.0,0.0,0.0,0.0,0.0,0.0,0.0,-19.0823974609375,0.0,0.0,0.10894521325826645,0.0,0.0,-16384.0,0.0,0.0,818.1646118164062,42.5272216796875,14.711740493774414,0.0
1731876356630.0,0.0,0.0,-20.0,0.0,0.0,0.0,0.0,0.0,0.0,0.0,0.0,0.0,0.0,0.0,0.0,0.0,0.0,-18.957550048828125,0.0,0.0,0.11308471113443375,0.0,0.0,-16384.0,0.0,0.0,849.251708984375,42.55917739868164,14.619039535522461,0.0
1731876356664.0,0.0,0.0,-20.0,0.0,0.0,0.0,0.0,0.0,0.0,0.0,0.0,0.0,0.0,0.0,0.0,0.0,0.0,-18.827972412109375,0.0,0.0,0.12140581756830215,0.0,0.0,-16384.0,0.0,0.0,911.7421875,42.592132568359375,14.52275276184082,0.0
1731876356697.0,0.0,0.0,-20.0,0.0,0.0,0.0,0.0,0.0,0.0,0.0,0.0,0.0,0.0,0.0,0.0,0.0,0.0,-18.54498291015625,0.0,0.0,0.12954626977443695,0.0,0.0,-16384.0,0.0,0.0,972.8759155273438,42.6633415222168,14.312210083007812,0.0
1731876356714.0,0.0,0.0,-20.0,0.0,0.0,0.0,0.0,0.0,0.0,0.0,0.0,0.0,0.0,0.0,0.0,0.0,0.0,-18.396514892578125,0.0,0.0,0.1335924118757248,0.0,0.0,-16384.0,0.0,0.0,1003.261962890625,42.70028305053711,14.201610565185547,0.0
1731876356714.0,0.0,0.0,-20.0,0.0,0.0,0.0,0.0,0.0,0.0,0.0,0.0,0.0,0.0,0.0,0.0,0.0,0.0,-18.396514892578125,0.0,0.0,0.1335924118757248,0.0,0.0,-16384.0,0.0,0.0,1003.261962890625,42.70028305053711,14.201610565185547,0.0
1731876356764.0,0.0,0.0,-20.0,0.0,0.0,0.0,0.0,0.0,0.0,0.0,0.0,0.0,0.0,0.0,0.0,0.0,0.0,-18.0858154296875,0.0,0.0,0.1454436331987381,0.0,0.0,-16384.0,0.0,0.0,1092.2630615234375,42.776668548583984,13.96985149383545,0.0
1731876356780.0,0.0,0.0,-20.0,0.0,0.0,0.0,0.0,0.0,0.0,0.0,0.0,0.0,0.0,0.0,0.0,0.0,0.0,-17.919158935546875,0.0,0.0,0.14924867451190948,0.0,0.0,-16384.0,0.0,0.0,1120.8385009765625,42.81712341308594,13.845367431640625,0.0
1731876356814.0,0.0,0.0,-20.0,0.0,0.0,0.0,0.0,0.0,0.0,0.0,0.0,0.0,0.0,0.0,0.0,0.0,0.0,-17.572723388671875,0.0,0.0,0.15686091780662537,0.0,0.0,-16384.0,0.0,0.0,1178.0054931640625,42.90005111694336,13.586224555969238,0.0
1731876356814.0,0.0,0.0,-20.0,0.0,0.0,0.0,0.0,0.0,0.0,0.0,0.0,0.0,0.0,0.0,0.0,0.0,0.0,-17.572723388671875,0.0,0.0,0.15686091780662537,0.0,0.0,-16384.0,0.0,0.0,1178.0054931640625,42.90005111694336,13.586224555969238,0.0
1731876356864.0,0.0,0.0,-20.0,0.0,0.0,0.0,0.0,0.0,0.0,0.0,0.0,0.0,0.0,0.0,0.0,0.0,0.0,-17.20892333984375,0.0,0.0,0.16795551776885986,0.0,0.0,-16384.0,0.0,0.0,1261.324462890625,42.98545455932617,13.313555717468262,0.0
1731876356881.0,0.0,0.0,-20.0,0.0,0.0,0.0,0.0,0.0,0.0,0.0,0.0,0.0,0.0,0.0,0.0,0.0,0.0,-17.016448974609375,0.0,0.0,0.1715788096189499,0.0,0.0,-16384.0,0.0,0.0,1288.534912109375,43.02993392944336,13.169081687927246,0.0
1731876356914.0,0.0,0.0,-20.0,0.0,0.0,0.0,0.0,0.0,0.0,0.0,0.0,0.0,0.0,0.0,0.0,0.0,0.0,-16.619171142578125,0.0,0.0,0.17860300838947296,0.0,0.0,-16384.0,0.0,0.0,1341.2857666015625,43.12021255493164,12.870405197143555,0.0
1731876356914.0,0.0,0.0,-20.0,0.0,0.0,0.0,0.0,0.0,0.0,0.0,0.0,0.0,0.0,0.0,0.0,0.0,0.0,-16.619171142578125,0.0,0.0,0.17860300838947296,0.0,0.0,-16384.0,0.0,0.0,1341.2857666015625,43.12021255493164,12.870405197143555,0.0
1731876356964.0,0.0,0.0,-20.0,0.0,0.0,0.0,0.0,0.0,0.0,0.0,0.0,0.0,0.0,0.0,0.0,0.0,0.0,-16.205810546875,0.0,0.0,0.18886514008045197,0.0,0.0,-16384.0,0.0,0.0,1418.35302734375,43.211944580078125,12.558982849121094,0.0
1731876356981.0,0.0,0.0,-20.0,0.0,0.0,0.0,0.0,0.0,0.0,0.0,0.0,0.0,0.0,0.0,0.0,0.0,0.0,-15.9893798828125,0.0,0.0,0.19217298924922943,0.0,0.0,-16384.0,0.0,0.0,1443.194580078125,43.25907516479492,12.39566421508789,0.0
1731876357014.0,0.0,0.0,-20.0,0.0,0.0,0.0,0.0,0.0,0.0,0.0,0.0,0.0,0.0,0.0,0.0,0.0,0.0,-15.54522705078125,0.0,0.0,0.19863811135292053,0.0,0.0,-16384.0,0.0,0.0,1491.746826171875,43.35386276245117,12.059951782226562,0.0
1731876357014.0,0.0,0.0,-20.0,0.0,0.0,0.0,0.0,0.0,0.0,0.0,0.0,0.0,0.0,0.0,0.0,0.0,0.0,-15.54522705078125,0.0,0.0,0.19863811135292053,0.0,0.0,-16384.0,0.0,0.0,1491.746826171875,43.35386276245117,12.059951782226562,0.0
1731876357031.0,0.0,0.0,-20.0,0.0,0.0,0.0,0.0,0.0,0.0,0.0,0.0,0.0,0.0,0.0,0.0,0.0,0.0,-15.317596435546875,0.0,0.0,0.20173630118370056,0.0,0.0,-16384.0,0.0,0.0,1515.0137939453125,43.40143585205078,11.887617111206055,0.0
1731876357081.0,0.0,0.0,-20.0,0.0,0.0,0.0,0.0,0.0,0.0,0.0,0.0,0.0,0.0,0.0,0.0,0.0,0.0,-14.8482666015625,0.0,0.0,0.21079562604427338,0.0,0.0,-16384.0,0.0,0.0,1583.0482177734375,43.497352600097656,11.531705856323242,0.0
1731876357098.0,0.0,0.0,-20.0,0.0,0.0,0.0,0.0,0.0,0.0,0.0,0.0,0.0,0.0,0.0,0.0,0.0,0.0,-14.606719970703125,0.0,0.0,0.21372050046920776,0.0,0.0,-16384.0,0.0,0.0,1605.013671875,43.54558181762695,11.34822940826416,0.0
1731876357114.0,0.0,0.0,-20.0,0.0,0.0,0.0,0.0,0.0,0.0,0.0,0.0,0.0,0.0,0.0,0.0,0.0,0.0,-14.36181640625,0.0,0.0,0.21654395759105682,0.0,0.0,-16384.0,0.0,0.0,1626.2174072265625,43.593692779541016,11.161994934082031,0.0
1731876357131.0,0.0,0.0,-20.0,0.0,0.0,0.0,0.0,0.0,0.0,0.0,0.0,0.0,0.0,0.0,0.0,0.0,0.0,-14.113677978515625,0.0,0.0,0.21936866641044617,0.0,0.0,-16384.0,0.0,0.0,1647.4306640625,43.64162063598633,10.973094940185547,0.0
1731876357181.0,0.0,0.0,-20.0,0.0,0.0,0.0,0.0,0.0,0.0,0.0,0.0,0.0,0.0,0.0,0.0,0.0,0.0,-13.60479736328125,0.0,0.0,0.22735069692134857,0.0,0.0,-16384.0,0.0,0.0,1707.3746337890625,43.73735809326172,10.585058212280273,0.0
1731876357198.0,0.0,0.0,-20.0,0.0,0.0,0.0,0.0,0.0,0.0,0.0,0.0,0.0,0.0,0.0,0.0,0.0,0.0,-13.344268798828125,0.0,0.0,0.22985859215259552,0.0,0.0,-16384.0,0.0,0.0,1726.2086181640625,43.785037994384766,10.38607120513916,0.0
1731876357214.0,0.0,0.0,-20.0,0.0,0.0,0.0,0.0,0.0,0.0,0.0,0.0,0.0,0.0,0.0,0.0,0.0,0.0,-13.08087158203125,0.0,0.0,0.23233982920646667,0.0,0.0,-16384.0,0.0,0.0,1744.8424072265625,43.83232116699219,10.184677124023438,0.0
1731876357231.0,0.0,0.0,-20.0,0.0,0.0,0.0,0.0,0.0,0.0,0.0,0.0,0.0,0.0,0.0,0.0,0.0,0.0,-12.81463623046875,0.0,0.0,0.23474736511707306,0.0,0.0,-16384.0,0.0,0.0,1762.9227294921875,43.879173278808594,9.980892181396484,0.0
1731876357281.0,0.0,0.0,-20.0,0.0,0.0,0.0,0.0,0.0,0.0,0.0,0.0,0.0,0.0,0.0,0.0,0.0,0.0,-12.271331787109375,0.0,0.0,0.24158433079719543,0.0,0.0,-16384.0,0.0,0.0,1814.2674560546875,43.97184371948242,9.564366340637207,0.0
1731876357298.0,0.0,0.0,-20.0,0.0,0.0,0.0,0.0,0.0,0.0,0.0,0.0,0.0,0.0,0.0,0.0,0.0,0.0,-11.9945068359375,0.0,0.0,0.24372710287570953,0.0,0.0,-16384.0,0.0,0.0,1830.359375,44.017539978027344,9.351805686950684,0.0
1731876357314.0,0.0,0.0,-20.0,0.0,0.0,0.0,0.0,0.0,0.0,0.0,0.0,0.0,0.0,0.0,0.0,0.0,0.0,-11.7152099609375,0.0,0.0,0.24579472839832306,0.0,0.0,-16384.0,0.0,0.0,1845.886962890625,44.06260299682617,9.137125968933105,0.0
1731876357331.0,0.0,0.0,-20.0,0.0,0.0,0.0,0.0,0.0,0.0,0.0,0.0,0.0,0.0,0.0,0.0,0.0,0.0,-11.433563232421875,0.0,0.0,0.24783074855804443,0.0,0.0,-16384.0,0.0,0.0,1861.17724609375,44.10698699951172,8.920418739318848,0.0
1731876357364.0,0.0,0.0,-20.0,0.0,0.0,0.0,0.0,0.0,0.0,0.0,0.0,0.0,0.0,0.0,0.0,0.0,0.0,-11.149566650390625,0.0,0.0,0.25163599848747253,0.0,0.0,-16384.0,0.0,0.0,1889.754150390625,44.15066146850586,8.70168685913086,0.0
1731876357398.0,0.0,0.0,-20.0,0.0,0.0,0.0,0.0,0.0,0.0,0.0,0.0,0.0,0.0,0.0,0.0,0.0,0.0,-10.57080078125,0.0,0.0,0.25515562295913696,0.0,0.0,-16384.0,0.0,0.0,1916.1861572265625,44.23630142211914,8.255268096923828,0.0
1731876357415.0,0.0,0.0,-20.0,0.0,0.0,0.0,0.0,0.0,0.0,0.0,0.0,0.0,0.0,0.0,0.0,0.0,0.0,-10.278411865234375,0.0,0.0,0.25682467222213745,0.0,0.0,-16384.0,0.0,0.0,1928.720458984375,44.277854919433594,8.029417037963867,0.0
1731876357431.0,0.0,0.0,-20.0,0.0,0.0,0.0,0.0,0.0,0.0,0.0,0.0,0.0,0.0,0.0,0.0,0.0,0.0,-9.984100341796875,0.0,0.0,0.2583986222743988,0.0,0.0,-16384.0,0.0,0.0,1940.5406494140625,44.31851577758789,7.801870346069336,0.0
1731876357465.0,0.0,0.0,-20.0,0.0,0.0,0.0,0.0,0.0,0.0,0.0,0.0,0.0,0.0,0.0,0.0,0.0,0.0,-9.688018798828125,0.0,0.0,0.2613752782344818,0.0,0.0,-16384.0,0.0,0.0,1962.8948974609375,44.35824203491211,7.572746276855469,0.0
1731876357498.0,0.0,0.0,-20.0,0.0,0.0,0.0,0.0,0.0,0.0,0.0,0.0,0.0,0.0,0.0,0.0,0.0,0.0,-9.087432861328125,0.0,0.0,0.26401591300964355,0.0,0.0,-16384.0,0.0,0.0,1982.725830078125,44.4351806640625,7.107367038726807,0.0
1731876357514.0,0.0,0.0,-20.0,0.0,0.0,0.0,0.0,0.0,0.0,0.0,0.0,0.0,0.0,0.0,0.0,0.0,0.0,-8.784881591796875,0.0,0.0,0.26524800062179565,0.0,0.0,-16384.0,0.0,0.0,1991.9786376953125,44.47209167480469,6.872628211975098,0.0
1731876357531.0,0.0,0.0,-20.0,0.0,0.0,0.0,0.0,0.0,0.0,0.0,0.0,0.0,0.0,0.0,0.0,0.0,0.0,-8.480926513671875,0.0,0.0,0.2664013206958771,0.0,0.0,-16384.0,0.0,0.0,2000.639892578125,44.5079231262207,6.636607646942139,0.0
1731876357564.0,0.0,0.0,-20.0,0.0,0.0,0.0,0.0,0.0,0.0,0.0,0.0,0.0,0.0,0.0,0.0,0.0,0.0,-8.1756591796875,0.0,0.0,0.26846998929977417,0.0,0.0,-16384.0,0.0,0.0,2016.17529296875,44.54265213012695,6.399379730224609,0.0
1731876357598.0,0.0,0.0,-20.0,0.0,0.0,0.0,0.0,0.0,0.0,0.0,0.0,0.0,0.0,0.0,0.0,0.0,0.0,-7.559295654296875,0.0,0.0,0.27025166153907776,0.0,0.0,-16384.0,0.0,0.0,2029.555419921875,44.60891342163086,5.9198479652404785,0.0
1731876357614.0,0.0,0.0,-20.0,0.0,0.0,0.0,0.0,0.0,0.0,0.0,0.0,0.0,0.0,0.0,0.0,0.0,0.0,-7.2496337890625,0.0,0.0,0.2710255980491638,0.0,0.0,-16384.0,0.0,0.0,2035.36767578125,44.6402587890625,5.67866849899292,0.0
1731876357614.0,0.0,0.0,-20.0,0.0,0.0,0.0,0.0,0.0,0.0,0.0,0.0,0.0,0.0,0.0,0.0,0.0,0.0,-7.2496337890625,0.0,0.0,0.2710255980491638,0.0,0.0,-16384.0,0.0,0.0,2035.36767578125,44.6402587890625,5.67866849899292,0.0
1731876357665.0,0.0,0.0,-20.0,0.0,0.0,0.0,0.0,0.0,0.0,0.0,0.0,0.0,0.0,0.0,0.0,0.0,0.0,-6.627685546875,0.0,0.0,0.2729097604751587,0.0,0.0,-16384.0,0.0,0.0,2049.517333984375,44.69927215576172,5.1937713623046875,0.0
1731876357681.0,0.0,0.0,-20.0,0.0,0.0,0.0,0.0,0.0,0.0,0.0,0.0,0.0,0.0,0.0,0.0,0.0,0.0,-6.31494140625,0.0,0.0,0.2733757793903351,0.0,0.0,-16384.0,0.0,0.0,2053.01708984375,44.72695541381836,4.949707984924316,0.0
1731876357715.0,0.0,0.0,-20.0,0.0,0.0,0.0,0.0,0.0,0.0,0.0,0.0,0.0,0.0,0.0,0.0,0.0,0.0,-5.687957763671875,0.0,0.0,0.27410295605659485,0.0,0.0,-16384.0,0.0,0.0,2058.478271484375,44.778438568115234,4.459977626800537,0.0
1731876357715.0,0.0,0.0,-20.0,0.0,0.0,0.0,0.0,0.0,0.0,0.0,0.0,0.0,0.0,0.0,0.0,0.0,0.0,-5.687957763671875,0.0,0.0,0.27410295605659485,0.0,0.0,-16384.0,0.0,0.0,2058.478271484375,44.778438568115234,4.459977626800537,0.0
1731876357731.0,0.0,0.0,-20.0,0.0,0.0,0.0,0.0,0.0,0.0,0.0,0.0,0.0,0.0,0.0,0.0,0.0,0.0,-5.37384033203125,0.0,0.0,0.2743469476699829,0.0,0.0,-16384.0,0.0,0.0,2060.310546875,44.802215576171875,4.214419364929199,0.0
1731876357781.0,0.0,0.0,-20.0,0.0,0.0,0.0,0.0,0.0,0.0,0.0,0.0,0.0,0.0,0.0,0.0,0.0,0.0,-4.744781494140625,0.0,0.0,0.27463075518608093,0.0,0.0,-16384.0,0.0,0.0,2062.44189453125,44.845787048339844,3.7222847938537598,0.0
1731876357798.0,0.0,0.0,-20.0,0.0,0.0,0.0,0.0,0.0,0.0,0.0,0.0,0.0,0.0,0.0,0.0,0.0,0.0,-4.430084228515625,0.0,0.0,0.27457231283187866,0.0,0.0,-16384.0,0.0,0.0,2062.0029296875,44.86555480957031,3.475914239883423,0.0
1731876357815.0,0.0,0.0,-20.0,0.0,0.0,0.0,0.0,0.0,0.0,0.0,0.0,0.0,0.0,0.0,0.0,0.0,0.0,-4.115447998046875,0.0,0.0,0.27443620562553406,0.0,0.0,-16384.0,0.0,0.0,2060.98095703125,44.88396453857422,3.2294867038726807,0.0
1731876357831.0,0.0,0.0,-20.0,0.0,0.0,0.0,0.0,0.0,0.0,0.0,0.0,0.0,0.0,0.0,0.0,0.0,0.0,-3.80096435546875,0.0,0.0,0.2742282748222351,0.0,0.0,-16384.0,0.0,0.0,2059.41943359375,44.90101623535156,2.983081340789795,0.0
1731876357865.0,0.0,0.0,-20.0,0.0,0.0,0.0,0.0,0.0,0.0,0.0,0.0,0.0,0.0,0.0,0.0,0.0,0.0,-3.486724853515625,0.0,0.0,0.2735746204853058,0.0,0.0,-16384.0,0.0,0.0,2054.510498046875,44.91670227050781,2.7367775440216064,0.0
1731876357898.0,0.0,0.0,-20.0,0.0,0.0,0.0,0.0,0.0,0.0,0.0,0.0,0.0,0.0,0.0,0.0,0.0,0.0,-2.860260009765625,0.0,0.0,0.2726077437400818,0.0,0.0,-16384.0,0.0,0.0,2047.2493896484375,44.943939208984375,2.2455101013183594,0.0
1731876357915.0,0.0,0.0,-20.0,0.0,0.0,0.0,0.0,0.0,0.0,0.0,0.0,0.0,0.0,0.0,0.0,0.0,0.0,-2.5478515625,0.0,0.0,0.2720220386981964,0.0,0.0,-16384.0,0.0,0.0,2042.8507080078125,44.95551681518555,2.0004184246063232,0.0
1731876357931.0,0.0,0.0,-20.0,0.0,0.0,0.0,0.0,0.0,0.0,0.0,0.0,0.0,0.0,0.0,0.0,0.0,0.0,-2.23614501953125,0.0,0.0,0.27134954929351807,0.0,0.0,-16384.0,0.0,0.0,2037.8004150390625,44.96573257446289,1.755818486213684,0.0
1731876357965.0,0.0,0.0,-20.0,0.0,0.0,0.0,0.0,0.0,0.0,0.0,0.0,0.0,0.0,0.0,0.0,0.0,0.0,-1.925201416015625,0.0,0.0,0.2697880268096924,0.0,0.0,-16384.0,0.0,0.0,2026.0736083984375,44.9745979309082,1.5117652416229248,0.0
1731876357982.0,0.0,0.0,-20.0,0.0,0.0,0.0,0.0,0.0,0.0,0.0,0.0,0.0,0.0,0.0,0.0,0.0,0.0,-1.616058349609375,0.0,0.0,0.2688879668712616,0.0,0.0,-16384.0,0.0,0.0,2019.3143310546875,44.98210144042969,1.2690809965133667,0.0
1731876358015.0,0.0,0.0,-20.0,0.0,0.0,0.0,0.0,0.0,0.0,0.0,0.0,0.0,0.0,0.0,0.0,0.0,0.0,-1.00091552734375,0.0,0.0,0.2668766975402832,0.0,0.0,-16384.0,0.0,0.0,2004.2099609375,44.993133544921875,0.7860772609710693,0.0
1731876358015.0,0.0,0.0,-20.0,0.0,0.0,0.0,0.0,0.0,0.0,0.0,0.0,0.0,0.0,0.0,0.0,0.0,0.0,-1.00091552734375,0.0,0.0,0.2668766975402832,0.0,0.0,-16384.0,0.0,0.0,2004.2099609375,44.993133544921875,0.7860772609710693,0.0
1731876358065.0,0.0,0.0,-20.0,0.0,0.0,0.0,0.0,0.0,0.0,0.0,0.0,0.0,0.0,0.0,0.0,0.0,0.0,-0.390533447265625,0.0,0.0,0.26329538226127625,0.0,0.0,-16384.0,0.0,0.0,1977.314697265625,44.99895477294922,0.30672186613082886,0.0
1731876358082.0,0.0,0.0,-20.0,0.0,0.0,0.0,0.0,0.0,0.0,0.0,0.0,0.0,0.0,0.0,0.0,0.0,0.0,-0.088836669921875,0.0,0.0,0.261957585811615,0.0,0.0,-16384.0,0.0,0.0,1967.26806640625,44.99994659423828,0.0697721391916275,0.0
1731876358115.0,0.0,0.0,-20.0,0.0,0.0,0.0,0.0,0.0,0.0,0.0,0.0,0.0,0.0,0.0,0.0,0.0,0.0,0.5099242925643921,0.0,0.0,0.2590809166431427,0.0,0.0,-16384.0,0.0,0.0,1945.66455078125,44.99821853637695,-0.40048834681510925,0.0
1731876358115.0,0.0,0.0,-20.0,0.0,0.0,0.0,0.0,0.0,0.0,0.0,0.0,0.0,0.0,0.0,0.0,0.0,0.0,0.5099242925643921,0.0,0.0,0.2590809166431427,0.0,0.0,-16384.0,0.0,0.0,1945.66455078125,44.99821853637695,-0.40048834681510925,0.0
1731876358165.0,0.0,0.0,-20.0,0.0,0.0,0.0,0.0,0.0,0.0,0.0,0.0,0.0,0.0,0.0,0.0,0.0,0.0,1.1018933057785034,0.0,0.0,0.25419852137565613,0.0,0.0,-16384.0,0.0,0.0,1908.9984130859375,44.99168014526367,-0.8653716444969177,0.0
1731876358182.0,0.0,0.0,-20.0,0.0,0.0,0.0,0.0,0.0,0.0,0.0,0.0,0.0,0.0,0.0,0.0,0.0,0.0,1.3931832313537598,0.0,0.0,0.25242456793785095,0.0,0.0,-16384.0,0.0,0.0,1895.67626953125,44.9866943359375,-1.0940958261489868,0.0
1731876358198.0,0.0,0.0,-20.0,0.0,0.0,0.0,0.0,0.0,0.0,0.0,0.0,0.0,0.0,0.0,0.0,0.0,0.0,1.6824405193328857,0.0,0.0,0.25057312846183777,0.0,0.0,-16384.0,0.0,0.0,1881.772216796875,44.98059844970703,-1.3211958408355713,0.0
1731876358215.0,0.0,0.0,-20.0,0.0,0.0,0.0,0.0,0.0,0.0,0.0,0.0,0.0,0.0,0.0,0.0,0.0,0.0,1.9695762395858765,0.0,0.0,0.2486937791109085,0.0,0.0,-16384.0,0.0,0.0,1867.6585693359375,44.97341537475586,-1.546596884727478,0.0
1731876358232.0,0.0,0.0,-20.0,0.0,0.0,0.0,0.0,0.0,0.0,0.0,0.0,0.0,0.0,0.0,0.0,0.0,0.0,2.2545580863952637,0.0,0.0,0.2466811239719391,0.0,0.0,-16384.0,0.0,0.0,1852.543701171875,44.96516799926758,-1.7702687978744507,0.0
1731876358282.0,0.0,0.0,-20.0,0.0,0.0,0.0,0.0,0.0,0.0,0.0,0.0,0.0,0.0,0.0,0.0,0.0,0.0,2.81514310836792,0.0,0.0,0.24032500386238098,0.0,0.0,-16384.0,0.0,0.0,1804.81005859375,44.94569396972656,-2.2101187705993652,0.0
1731876358299.0,0.0,0.0,-20.0,0.0,0.0,0.0,0.0,0.0,0.0,0.0,0.0,0.0,0.0,0.0,0.0,0.0,0.0,3.0905356407165527,0.0,0.0,0.2380853146314621,0.0,0.0,-16384.0,0.0,0.0,1787.9903564453125,44.93455123901367,-2.426124334335327,0.0
1731876358315.0,0.0,0.0,-20.0,0.0,0.0,0.0,0.0,0.0,0.0,0.0,0.0,0.0,0.0,0.0,0.0,0.0,0.0,3.363361358642578,0.0,0.0,0.2357800304889679,0.0,0.0,-16384.0,0.0,0.0,1770.6778564453125,44.922489166259766,-2.640061140060425,0.0
1731876358332.0,0.0,0.0,-20.0,0.0,0.0,0.0,0.0,0.0,0.0,0.0,0.0,0.0,0.0,0.0,0.0,0.0,0.0,3.633545398712158,0.0,0.0,0.23340973258018494,0.0,0.0,-16384.0,0.0,0.0,1752.8773193359375,44.90953826904297,-2.851867437362671,0.0
1731876358382.0,0.0,0.0,-20.0,0.0,0.0,0.0,0.0,0.0,0.0,0.0,0.0,0.0,0.0,0.0,0.0,0.0,0.0,4.162753582000732,0.0,0.0,0.22584888339042664,0.0,0.0,-16384.0,0.0,0.0,1696.0963134765625,44.88128662109375,-3.2665436267852783,0.0
1731876358399.0,0.0,0.0,-20.0,0.0,0.0,0.0,0.0,0.0,0.0,0.0,0.0,0.0,0.0,0.0,0.0,0.0,0.0,4.421557426452637,0.0,0.0,0.22322377562522888,0.0,0.0,-16384.0,0.0,0.0,1676.382080078125,44.86607360839844,-3.4692375659942627,0.0
1731876358415.0,0.0,0.0,-20.0,0.0,0.0,0.0,0.0,0.0,0.0,0.0,0.0,0.0,0.0,0.0,0.0,0.0,0.0,4.6773529052734375,0.0,0.0,0.22052717208862305,0.0,0.0,-16384.0,0.0,0.0,1656.130859375,44.850135803222656,-3.6695053577423096,0.0
1731876358432.0,0.0,0.0,-20.0,0.0,0.0,0.0,0.0,0.0,0.0,0.0,0.0,0.0,0.0,0.0,0.0,0.0,0.0,4.93005895614624,0.0,0.0,0.21773868799209595,0.0,0.0,-16384.0,0.0,0.0,1635.189697265625,44.83351516723633,-3.8672831058502197,0.0
1731876358465.0,0.0,0.0,-20.0,0.0,0.0,0.0,0.0,0.0,0.0,0.0,0.0,0.0,0.0,0.0,0.0,0.0,0.0,5.179568767547607,0.0,0.0,0.21208372712135315,0.0,0.0,-16384.0,0.0,0.0,1592.7216796875,44.81624984741211,-4.062485218048096,0.0
1731876358482.0,0.0,0.0,-20.0,0.0,0.0,0.0,0.0,0.0,0.0,0.0,0.0,0.0,0.0,0.0,0.0,0.0,0.0,5.422598838806152,0.0,0.0,0.20915794372558594,0.0,0.0,-16384.0,0.0,0.0,1570.7493896484375,44.798614501953125,-4.252543926239014,0.0
1731876358515.0,0.0,0.0,-20.0,0.0,0.0,0.0,0.0,0.0,0.0,0.0,0.0,0.0,0.0,0.0,0.0,0.0,0.0,5.89853572845459,0.0,0.0,0.20310042798519135,0.0,0.0,-16384.0,0.0,0.0,1525.25830078125,44.76174545288086,-4.624520301818848,0.0
1731876358515.0,0.0,0.0,-20.0,0.0,0.0,0.0,0.0,0.0,0.0,0.0,0.0,0.0,0.0,0.0,0.0,0.0,0.0,5.89853572845459,0.0,0.0,0.20310042798519135,0.0,0.0,-16384.0,0.0,0.0,1525.25830078125,44.76174545288086,-4.624520301818848,0.0
1731876358565.0,0.0,0.0,-20.0,0.0,0.0,0.0,0.0,0.0,0.0,0.0,0.0,0.0,0.0,0.0,0.0,0.0,0.0,6.360484600067139,0.0,0.0,0.19358597695827484,0.0,0.0,-16384.0,0.0,0.0,1453.805908203125,44.72300720214844,-4.985259056091309,0.0
1731876358582.0,0.0,0.0,-20.0,0.0,0.0,0.0,0.0,0.0,0.0,0.0,0.0,0.0,0.0,0.0,0.0,0.0,0.0,6.582317352294922,0.0,0.0,0.19031332433223724,0.0,0.0,-16384.0,0.0,0.0,1429.228759765625,44.703369140625,-5.158376216888428,0.0
1731876358615.0,0.0,0.0,-20.0,0.0,0.0,0.0,0.0,0.0,0.0,0.0,0.0,0.0,0.0,0.0,0.0,0.0,0.0,7.014616966247559,0.0,0.0,0.1836353838443756,0.0,0.0,-16384.0,0.0,0.0,1379.0782470703125,44.663177490234375,-5.495514869689941,0.0
1731876358615.0,0.0,0.0,-20.0,0.0,0.0,0.0,0.0,0.0,0.0,0.0,0.0,0.0,0.0,0.0,0.0,0.0,0.0,7.014616966247559,0.0,0.0,0.1836353838443756,0.0,0.0,-16384.0,0.0,0.0,1379.0782470703125,44.663177490234375,-5.495514869689941,0.0
1731876358632.0,0.0,0.0,-20.0,0.0,0.0,0.0,0.0,0.0,0.0,0.0,0.0,0.0,0.0,0.0,0.0,0.0,0.0,7.225048542022705,0.0,0.0,0.18015678226947784,0.0,0.0,-16384.0,0.0,0.0,1352.9544677734375,44.64269256591797,-5.659512519836426,0.0
1731876358682.0,0.0,0.0,-20.0,0.0,0.0,0.0,0.0,0.0,0.0,0.0,0.0,0.0,0.0,0.0,0.0,0.0,0.0,7.629861831665039,0.0,0.0,0.16952158510684967,0.0,0.0,-16384.0,0.0,0.0,1273.08544921875,44.60158920288086,-5.974784851074219,0.0
1731876358699.0,0.0,0.0,-20.0,0.0,0.0,0.0,0.0,0.0,0.0,0.0,0.0,0.0,0.0,0.0,0.0,0.0,0.0,7.8241190910339355,0.0,0.0,0.165897935628891,0.0,0.0,-16384.0,0.0,0.0,1245.872314453125,44.581077575683594,-6.1259684562683105,0.0
1731876358715.0,0.0,0.0,-20.0,0.0,0.0,0.0,0.0,0.0,0.0,0.0,0.0,0.0,0.0,0.0,0.0,0.0,0.0,8.014225006103516,0.0,0.0,0.16225527226924896,0.0,0.0,-16384.0,0.0,0.0,1218.516357421875,44.56050491333008,-6.273853302001953,0.0
1731876358732.0,0.0,0.0,-20.0,0.0,0.0,0.0,0.0,0.0,0.0,0.0,0.0,0.0,0.0,0.0,0.0,0.0,0.0,8.200154304504395,0.0,0.0,0.15854085981845856,0.0,0.0,-16384.0,0.0,0.0,1190.62158203125,44.539913177490234,-6.418422222137451,0.0
1731876358782.0,0.0,0.0,-20.0,0.0,0.0,0.0,0.0,0.0,0.0,0.0,0.0,0.0,0.0,0.0,0.0,0.0,0.0,8.554810523986816,0.0,0.0,0.14708106219768524,0.0,0.0,-16384.0,0.0,0.0,1104.5599365234375,44.499332427978516,-6.693996429443359,0.0
1731876358799.0,0.0,0.0,-20.0,0.0,0.0,0.0,0.0,0.0,0.0,0.0,0.0,0.0,0.0,0.0,0.0,0.0,0.0,8.723352432250977,0.0,0.0,0.1431390792131424,0.0,0.0,-16384.0,0.0,0.0,1074.9561767578125,44.47944641113281,-6.824866771697998,0.0
1731876358816.0,0.0,0.0,-20.0,0.0,0.0,0.0,0.0,0.0,0.0,0.0,0.0,0.0,0.0,0.0,0.0,0.0,0.0,8.887377738952637,0.0,0.0,0.13925732672214508,0.0,0.0,-16384.0,0.0,0.0,1045.8046875,44.45972442626953,-6.952173233032227,0.0
1731876358832.0,0.0,0.0,-20.0,0.0,0.0,0.0,0.0,0.0,0.0,0.0,0.0,0.0,0.0,0.0,0.0,0.0,0.0,9.046955108642578,0.0,0.0,0.13527940213680267,0.0,0.0,-16384.0,0.0,0.0,1015.9310302734375,44.440189361572266,-7.075973033905029,0.0
1731876358882.0,0.0,0.0,-20.0,0.0,0.0,0.0,0.0,0.0,0.0,0.0,0.0,0.0,0.0,0.0,0.0,0.0,0.0,9.347764015197754,0.0,0.0,0.12316809594631195,0.0,0.0,-16384.0,0.0,0.0,924.9766845703125,44.40243148803711,-7.30919075012207,0.0
1731876358899.0,0.0,0.0,-20.0,0.0,0.0,0.0,0.0,0.0,0.0,0.0,0.0,0.0,0.0,0.0,0.0,0.0,0.0,9.48890495300293,0.0,0.0,0.11903088539838791,0.0,0.0,-16384.0,0.0,0.0,893.90673828125,44.3842887878418,-7.418547630310059,0.0
1731876358916.0,0.0,0.0,-20.0,0.0,0.0,0.0,0.0,0.0,0.0,0.0,0.0,0.0,0.0,0.0,0.0,0.0,0.0,9.62530517578125,0.0,0.0,0.1149514839053154,0.0,0.0,-16384.0,0.0,0.0,863.2709350585938,44.36650085449219,-7.5241899490356445,0.0
1731876358933.0,0.0,0.0,-20.0,0.0,0.0,0.0,0.0,0.0,0.0,0.0,0.0,0.0,0.0,0.0,0.0,0.0,0.0,9.75702953338623,0.0,0.0,0.11067238450050354,0.0,0.0,-16384.0,0.0,0.0,831.135498046875,44.34908676147461,-7.626168727874756,0.0
1731876358983.0,0.0,0.0,-20.0,0.0,0.0,0.0,0.0,0.0,0.0,0.0,0.0,0.0,0.0,0.0,0.0,0.0,0.0,10.001041412353516,0.0,0.0,0.0979907438158989,0.0,0.0,-16384.0,0.0,0.0,735.89794921875,44.31620407104492,-7.8149733543396,0.0
1731876358999.0,0.0,0.0,-20.0,0.0,0.0,0.0,0.0,0.0,0.0,0.0,0.0,0.0,0.0,0.0,0.0,0.0,0.0,10.113329887390137,0.0,0.0,0.09374970942735672,0.0,0.0,-16384.0,0.0,0.0,704.04833984375,44.30080795288086,-7.901809215545654,0.0
1731876359016.0,0.0,0.0,-20.0,0.0,0.0,0.0,0.0,0.0,0.0,0.0,0.0,0.0,0.0,0.0,0.0,0.0,0.0,10.220758438110352,0.0,0.0,0.08940395712852478,0.0,0.0,-16384.0,0.0,0.0,671.4122924804688,44.285911560058594,-7.984858512878418,0.0
1731876359033.0,0.0,0.0,-20.0,0.0,0.0,0.0,0.0,0.0,0.0,0.0,0.0,0.0,0.0,0.0,0.0,0.0,0.0,10.323206901550293,0.0,0.0,0.08504896610975266,0.0,0.0,-16384.0,0.0,0.0,638.7068481445312,44.27156448364258,-8.064032554626465,0.0
1731876359083.0,0.0,0.0,-20.0,0.0,0.0,0.0,0.0,0.0,0.0,0.0,0.0,0.0,0.0,0.0,0.0,0.0,0.0,10.50804615020752,0.0,0.0,0.07189472019672394,0.0,0.0,-16384.0,0.0,0.0,539.920166015625,44.24531936645508,-8.206812858581543,0.0
1731876359099.0,0.0,0.0,-20.0,0.0,0.0,0.0,0.0,0.0,0.0,0.0,0.0,0.0,0.0,0.0,0.0,0.0,0.0,10.590431213378906,0.0,0.0,0.06743592023849487,0.0,0.0,-16384.0,0.0,0.0,506.4351501464844,44.23347473144531,-8.270423889160156,0.0
1731876359116.0,0.0,0.0,-20.0,0.0,0.0,0.0,0.0,0.0,0.0,0.0,0.0,0.0,0.0,0.0,0.0,0.0,0.0,10.667708396911621,0.0,0.0,0.06300707161426544,0.0,0.0,-16384.0,0.0,0.0,473.175048828125,44.2222785949707,-8.33007526397705,0.0
1731876359133.0,0.0,0.0,-20.0,0.0,0.0,0.0,0.0,0.0,0.0,0.0,0.0,0.0,0.0,0.0,0.0,0.0,0.0,10.739908218383789,0.0,0.0,0.058511726558208466,0.0,0.0,-16384.0,0.0,0.0,439.41558837890625,44.21174621582031,-8.385794639587402,0.0
1731876359166.0,0.0,0.0,-20.0,0.0,0.0,0.0,0.0,0.0,0.0,0.0,0.0,0.0,0.0,0.0,0.0,0.0,0.0,10.806957244873047,0.0,0.0,0.049538806080818176,0.0,0.0,-16384.0,0.0,0.0,372.0301208496094,44.201904296875,-8.43752670288086,0.0
1731876359199.0,0.0,0.0,-20.0,0.0,0.0,0.0,0.0,0.0,0.0,0.0,0.0,0.0,0.0,0.0,0.0,0.0,0.0,10.91534423828125,0.0,0.0,0.04054403305053711,0.0,0.0,-16384.0,0.0,0.0,304.4804992675781,44.18585968017578,-8.52112865447998,0.0
1731876359216.0,0.0,0.0,-20.0,0.0,0.0,0.0,0.0,0.0,0.0,0.0,0.0,0.0,0.0,0.0,0.0,0.0,0.0,10.96180534362793,0.0,0.0,0.03594617173075676,0.0,0.0,-16384.0,0.0,0.0,269.951171875,44.17893981933594,-8.55695629119873,0.0
1731876359233.0,0.0,0.0,-20.0,0.0,0.0,0.0,0.0,0.0,0.0,0.0,0.0,0.0,0.0,0.0,0.0,0.0,0.0,11.002996444702148,0.0,0.0,0.03140464797616005,0.0,0.0,-16384.0,0.0,0.0,235.8448944091797,44.17277526855469,-8.588714599609375,0.0
1731876359266.0,0.0,0.0,-20.0,0.0,0.0,0.0,0.0,0.0,0.0,0.0,0.0,0.0,0.0,0.0,0.0,0.0,0.0,11.038982391357422,0.0,0.0,0.022380243986845016,0.0,0.0,-16384.0,0.0,0.0,168.07276916503906,44.1673698425293,-8.616456985473633,0.0
1731876359300.0,0.0,0.0,-20.0,0.0,0.0,0.0,0.0,0.0,0.0,0.0,0.0,0.0,0.0,0.0,0.0,0.0,0.0,11.085005760192871,0.0,0.0,0.01316401083022356,0.0,0.0,-16384.0,0.0,0.0,98.86003875732422,44.16043472290039,-8.651932716369629,0.0
1731876359316.0,0.0,0.0,-20.0,0.0,0.0,0.0,0.0,0.0,0.0,0.0,0.0,0.0,0.0,0.0,0.0,0.0,0.0,11.100090980529785,0.0,0.0,0.008558036759495735,0.0,0.0,-16384.0,0.0,0.0,64.26976013183594,44.15815734863281,-8.663558006286621,0.0
1731876359333.0,0.0,0.0,-20.0,0.0,0.0,0.0,0.0,0.0,0.0,0.0,0.0,0.0,0.0,0.0,0.0,0.0,0.0,11.109899520874023,0.0,0.0,0.004033454228192568,0.0,0.0,-16384.0,0.0,0.0,30.290725708007812,44.156673431396484,-8.671117782592773,0.0
1731876359366.0,0.0,0.0,-20.0,0.0,0.0,0.0,0.0,0.0,0.0,0.0,0.0,0.0,0.0,0.0,0.0,0.0,0.0,11.114520072937012,0.0,0.0,-0.005135083571076393,0.0,0.0,-16384.0,0.0,0.0,-38.563819885253906,44.15597152709961,-8.67467975616455,0.0
1731876359383.0,0.0,0.0,-20.0,0.0,0.0,0.0,0.0,0.0,0.0,0.0,0.0,0.0,0.0,0.0,0.0,0.0,0.0,11.108636856079102,0.0,0.0,-0.009726220741868019,0.0,0.0,-16384.0,0.0,0.0,-73.04267883300781,44.156864166259766,-8.670145034790039,0.0
1731876359416.0,0.0,0.0,-20.0,0.0,0.0,0.0,0.0,0.0,0.0,0.0,0.0,0.0,0.0,0.0,0.0,0.0,0.0,11.081088066101074,0.0,0.0,-0.018882328644394875,0.0,0.0,-16384.0,0.0,0.0,-141.8038787841797,44.16102600097656,-8.648913383483887,0.0
1731876359416.0,0.0,0.0,-20.0,0.0,0.0,0.0,0.0,0.0,0.0,0.0,0.0,0.0,0.0,0.0,0.0,0.0,0.0,11.081088066101074,0.0,0.0,-0.018882328644394875,0.0,0.0,-16384.0,0.0,0.0,-141.8038787841797,44.16102600097656,-8.648913383483887,0.0
1731876359466.0,0.0,0.0,-20.0,0.0,0.0,0.0,0.0,0.0,0.0,0.0,0.0,0.0,0.0,0.0,0.0,0.0,0.0,11.032525062561035,0.0,0.0,-0.032532237470149994,0.0,0.0,-16384.0,0.0,0.0,-244.3129425048828,44.16834259033203,-8.611479759216309,0.0
1731876359483.0,0.0,0.0,-20.0,0.0,0.0,0.0,0.0,0.0,0.0,0.0,0.0,0.0,0.0,0.0,0.0,0.0,0.0,10.995246887207031,0.0,0.0,-0.03710462152957916,0.0,0.0,-16384.0,0.0,0.0,-278.6509704589844,44.17393493652344,-8.58273983001709,0.0
1731876359516.0,0.0,0.0,-20.0,0.0,0.0,0.0,0.0,0.0,0.0,0.0,0.0,0.0,0.0,0.0,0.0,0.0,0.0,10.904980659484863,0.0,0.0,-0.04616716876626015,0.0,0.0,-16384.0,0.0,0.0,-346.70953369140625,44.18740463256836,-8.51313591003418,0.0
1731876359516.0,0.0,0.0,-20.0,0.0,0.0,0.0,0.0,0.0,0.0,0.0,0.0,0.0,0.0,0.0,0.0,0.0,0.0,10.904980659484863,0.0,0.0,-0.04616716876626015,0.0,0.0,-16384.0,0.0,0.0,-346.70953369140625,44.18740463256836,-8.51313591003418,0.0
1731876359566.0,0.0,0.0,-20.0,0.0,0.0,0.0,0.0,0.0,0.0,0.0,0.0,0.0,0.0,0.0,0.0,0.0,0.0,10.79403018951416,0.0,0.0,-0.059669554233551025,0.0,0.0,-16384.0,0.0,0.0,-448.1107177734375,44.20380401611328,-8.4275541305542,0.0
1731876359583.0,0.0,0.0,-20.0,0.0,0.0,0.0,0.0,0.0,0.0,0.0,0.0,0.0,0.0,0.0,0.0,0.0,0.0,10.725654602050781,0.0,0.0,-0.06414415687322617,0.0,0.0,-16384.0,0.0,0.0,-481.71441650390625,44.21383285522461,-8.374794960021973,0.0
1731876359616.0,0.0,0.0,-20.0,0.0,0.0,0.0,0.0,0.0,0.0,0.0,0.0,0.0,0.0,0.0,0.0,0.0,0.0,10.573575019836426,0.0,0.0,-0.07294133305549622,0.0,0.0,-16384.0,0.0,0.0,-547.7800903320312,44.235904693603516,-8.257410049438477,0.0
1731876359616.0,0.0,0.0,-20.0,0.0,0.0,0.0,0.0,0.0,0.0,0.0,0.0,0.0,0.0,0.0,0.0,0.0,0.0,10.573575019836426,0.0,0.0,-0.07294133305549622,0.0,0.0,-16384.0,0.0,0.0,-547.7800903320312,44.235904693603516,-8.257410049438477,0.0
1731876359666.0,0.0,0.0,-20.0,0.0,0.0,0.0,0.0,0.0,0.0,0.0,0.0,0.0,0.0,0.0,0.0,0.0,0.0,10.401344299316406,0.0,0.0,-0.08614365756511688,0.0,0.0,-16384.0,0.0,0.0,-646.9278564453125,44.26052474975586,-8.12440013885498,0.0
1731876359683.0,0.0,0.0,-20.0,0.0,0.0,0.0,0.0,0.0,0.0,0.0,0.0,0.0,0.0,0.0,0.0,0.0,0.0,10.302631378173828,0.0,0.0,-0.09047666937112808,0.0,0.0,-16384.0,0.0,0.0,-679.4682006835938,44.27445602416992,-8.04813289642334,0.0
1731876359716.0,0.0,0.0,-20.0,0.0,0.0,0.0,0.0,0.0,0.0,0.0,0.0,0.0,0.0,0.0,0.0,0.0,0.0,10.090356826782227,0.0,0.0,-0.0990661233663559,0.0,0.0,-16384.0,0.0,0.0,-743.9739379882812,44.30397033691406,-7.8840460777282715,0.0
1731876359733.0,0.0,0.0,-20.0,0.0,0.0,0.0,0.0,0.0,0.0,0.0,0.0,0.0,0.0,0.0,0.0,0.0,0.0,9.976834297180176,0.0,0.0,-0.10335125774145126,0.0,0.0,-16384.0,0.0,0.0,-776.1547241210938,44.31950378417969,-7.796250343322754,0.0
1731876359750.0,0.0,0.0,-20.0,0.0,0.0,0.0,0.0,0.0,0.0,0.0,0.0,0.0,0.0,0.0,0.0,0.0,0.0,9.858402252197266,0.0,0.0,-0.10760726779699326,0.0,0.0,-16384.0,0.0,0.0,-808.1168212890625,44.33552551269531,-7.704623222351074,0.0
1731876359783.0,0.0,0.0,-20.0,0.0,0.0,0.0,0.0,0.0,0.0,0.0,0.0,0.0,0.0,0.0,0.0,0.0,0.0,9.73509407043457,0.0,0.0,-0.11596637964248657,0.0,0.0,-16384.0,0.0,0.0,-870.8927001953125,44.35200119018555,-7.609189510345459,0.0
1731876359817.0,0.0,0.0,-20.0,0.0,0.0,0.0,0.0,0.0,0.0,0.0,0.0,0.0,0.0,0.0,0.0,0.0,0.0,9.464634895324707,0.0,0.0,-0.12418176978826523,0.0,0.0,-16384.0,0.0,0.0,-932.5892333984375,44.387428283691406,-7.399745941162109,0.0
1731876359833.0,0.0,0.0,-20.0,0.0,0.0,0.0,0.0,0.0,0.0,0.0,0.0,0.0,0.0,0.0,0.0,0.0,0.0,9.322333335876465,0.0,0.0,-0.12823109328746796,0.0,0.0,-16384.0,0.0,0.0,-962.9991455078125,44.40566635131836,-7.289481163024902,0.0
1731876359850.0,0.0,0.0,-20.0,0.0,0.0,0.0,0.0,0.0,0.0,0.0,0.0,0.0,0.0,0.0,0.0,0.0,0.0,9.175392150878906,0.0,0.0,-0.13224506378173828,0.0,0.0,-16384.0,0.0,0.0,-993.1435546875,44.424217224121094,-7.175574779510498,0.0
1731876359883.0,0.0,0.0,-20.0,0.0,0.0,0.0,0.0,0.0,0.0,0.0,0.0,0.0,0.0,0.0,0.0,0.0,0.0,9.023848533630371,0.0,0.0,-0.14019142091274261,0.0,0.0,-16384.0,0.0,0.0,-1052.8197021484375,44.44304275512695,-7.058050632476807,0.0
1731876359900.0,0.0,0.0,-20.0,0.0,0.0,0.0,0.0,0.0,0.0,0.0,0.0,0.0,0.0,0.0,0.0,0.0,0.0,8.863201141357422,0.0,0.0,-0.14412103593349457,0.0,0.0,-16384.0,0.0,0.0,-1082.33056640625,44.4626579284668,-6.933411598205566,0.0
1731876359916.0,0.0,0.0,-20.0,0.0,0.0,0.0,0.0,0.0,0.0,0.0,0.0,0.0,0.0,0.0,0.0,0.0,0.0,8.698050498962402,0.0,0.0,-0.14798210561275482,0.0,0.0,-16384.0,0.0,0.0,-1111.32666015625,44.48245620727539,-6.805224418640137,0.0
1731876359933.0,0.0,0.0,-20.0,0.0,0.0,0.0,0.0,0.0,0.0,0.0,0.0,0.0,0.0,0.0,0.0,0.0,0.0,8.528473854064941,0.0,0.0,-0.15177445113658905,0.0,0.0,-16384.0,0.0,0.0,-1139.8067626953125,44.502403259277344,-6.6735405921936035,0.0
1731876359983.0,0.0,0.0,-20.0,0.0,0.0,0.0,0.0,0.0,0.0,0.0,0.0,0.0,0.0,0.0,0.0,0.0,0.0,8.172022819519043,0.0,0.0,-0.1630619913339615,0.0,0.0,-16384.0,0.0,0.0,-1224.57470703125,44.543060302734375,-6.396553039550781,0.0
1731876360000.0,0.0,0.0,-20.0,0.0,0.0,0.0,0.0,0.0,0.0,0.0,0.0,0.0,0.0,0.0,0.0,0.0,0.0,7.985166549682617,0.0,0.0,-0.1667080521583557,0.0,0.0,-16384.0,0.0,0.0,-1251.9561767578125,44.563682556152344,-6.251252174377441,0.0
1731876360016.0,0.0,0.0,-20.0,0.0,0.0,0.0,0.0,0.0,0.0,0.0,0.0,0.0,0.0,0.0,0.0,0.0,0.0,7.794133186340332,0.0,0.0,-0.17033445835113525,0.0,0.0,-16384.0,0.0,0.0,-1279.1900634765625,44.58427810668945,-6.102635860443115,0.0
1731876360033.0,0.0,0.0,-20.0,0.0,0.0,0.0,0.0,0.0,0.0,0.0,0.0,0.0,0.0,0.0,0.0,0.0,0.0,7.598945140838623,0.0,0.0,-0.17391322553157806,0.0,0.0,-16384.0,0.0,0.0,-1306.066162109375,44.60480880737305,-5.950716972351074,0.0
1731876360067.0,0.0,0.0,-20.0,0.0,0.0,0.0,0.0,0.0,0.0,0.0,0.0,0.0,0.0,0.0,0.0,0.0,0.0,7.399655342102051,0.0,0.0,-0.18092387914657593,0.0,0.0,-16384.0,0.0,0.0,-1358.7152099609375,44.62523651123047,-5.795533657073975,0.0
1731876360100.0,0.0,0.0,-20.0,0.0,0.0,0.0,0.0,0.0,0.0,0.0,0.0,0.0,0.0,0.0,0.0,0.0,0.0,6.981149673461914,0.0,0.0,-0.18767096102237701,0.0,0.0,-16384.0,0.0,0.0,-1409.3848876953125,44.666378021240234,-5.469425678253174,0.0
1731876360116.0,0.0,0.0,-20.0,0.0,0.0,0.0,0.0,0.0,0.0,0.0,0.0,0.0,0.0,0.0,0.0,0.0,0.0,6.766093730926514,0.0,0.0,-0.1909736841917038,0.0,0.0,-16384.0,0.0,0.0,-1434.18798828125,44.68659210205078,-5.3017354011535645,0.0
1731876360116.0,0.0,0.0,-20.0,0.0,0.0,0.0,0.0,0.0,0.0,0.0,0.0,0.0,0.0,0.0,0.0,0.0,0.0,6.766093730926514,0.0,0.0,-0.1909736841917038,0.0,0.0,-16384.0,0.0,0.0,-1434.18798828125,44.68659210205078,-5.3017354011535645,0.0
1731876360167.0,0.0,0.0,-20.0,0.0,0.0,0.0,0.0,0.0,0.0,0.0,0.0,0.0,0.0,0.0,0.0,0.0,0.0,6.324690818786621,0.0,0.0,-0.200654074549675,0.0,0.0,-16384.0,0.0,0.0,-1506.886474609375,44.726112365722656,-4.957318305969238,0.0
1731876360183.0,0.0,0.0,-20.0,0.0,0.0,0.0,0.0,0.0,0.0,0.0,0.0,0.0,0.0,0.0,0.0,0.0,0.0,6.0947585105896,0.0,0.0,-0.20377302169799805,0.0,0.0,-16384.0,0.0,0.0,-1530.309326171875,44.745643615722656,-4.777790069580078,0.0
1731876360217.0,0.0,0.0,-20.0,0.0,0.0,0.0,0.0,0.0,0.0,0.0,0.0,0.0,0.0,0.0,0.0,0.0,0.0,5.624275207519531,0.0,0.0,-0.20975130796432495,0.0,0.0,-16384.0,0.0,0.0,-1575.20556640625,44.78336715698242,-4.410204887390137,0.0
1731876360233.0,0.0,0.0,-20.0,0.0,0.0,0.0,0.0,0.0,0.0,0.0,0.0,0.0,0.0,0.0,0.0,0.0,0.0,5.383918285369873,0.0,0.0,-0.2127184122800827,0.0,0.0,-16384.0,0.0,0.0,-1597.4881591796875,44.801475524902344,-4.222299098968506,0.0
1731876360250.0,0.0,0.0,-20.0,0.0,0.0,0.0,0.0,0.0,0.0,0.0,0.0,0.0,0.0,0.0,0.0,0.0,0.0,5.140161037445068,0.0,0.0,-0.21559356153011322,0.0,0.0,-16384.0,0.0,0.0,-1619.080078125,44.819034576416016,-4.031660079956055,0.0
1731876360283.0,0.0,0.0,-20.0,0.0,0.0,0.0,0.0,0.0,0.0,0.0,0.0,0.0,0.0,0.0,0.0,0.0,0.0,4.89310884475708,0.0,0.0,-0.22112241387367249,0.0,0.0,-16384.0,0.0,0.0,-1660.60107421875,44.83599853515625,-3.838369131088257,0.0
1731876360300.0,0.0,0.0,-20.0,0.0,0.0,0.0,0.0,0.0,0.0,0.0,0.0,0.0,0.0,0.0,0.0,0.0,0.0,4.639720916748047,0.0,0.0,-0.22382496297359467,0.0,0.0,-16384.0,0.0,0.0,-1680.8968505859375,44.8525390625,-3.640047073364258,0.0
1731876360334.0,0.0,0.0,-20.0,0.0,0.0,0.0,0.0,0.0,0.0,0.0,0.0,0.0,0.0,0.0,0.0,0.0,0.0,4.12376070022583,0.0,0.0,-0.2290123701095581,0.0,0.0,-16384.0,0.0,0.0,-1719.8536376953125,44.88349914550781,-3.2359986305236816,0.0
1731876360334.0,0.0,0.0,-20.0,0.0,0.0,0.0,0.0,0.0,0.0,0.0,0.0,0.0,0.0,0.0,0.0,0.0,0.0,4.12376070022583,0.0,0.0,-0.2290123701095581,0.0,0.0,-16384.0,0.0,0.0,-1719.8536376953125,44.88349914550781,-3.2359986305236816,0.0
1731876360384.0,0.0,0.0,-20.0,0.0,0.0,0.0,0.0,0.0,0.0,0.0,0.0,0.0,0.0,0.0,0.0,0.0,0.0,3.5960352420806885,0.0,0.0,-0.23630891740322113,0.0,0.0,-16384.0,0.0,0.0,-1774.6497802734375,44.911399841308594,-2.822465658187866,0.0
1731876360400.0,0.0,0.0,-20.0,0.0,0.0,0.0,0.0,0.0,0.0,0.0,0.0,0.0,0.0,0.0,0.0,0.0,0.0,3.325244426727295,0.0,0.0,-0.23860770463943481,0.0,0.0,-16384.0,0.0,0.0,-1791.913330078125,44.92423629760742,-2.610175132751465,0.0
1731876360434.0,0.0,0.0,-20.0,0.0,0.0,0.0,0.0,0.0,0.0,0.0,0.0,0.0,0.0,0.0,0.0,0.0,0.0,2.775801181793213,0.0,0.0,-0.24300585687160492,0.0,0.0,-16384.0,0.0,0.0,-1824.9429931640625,44.947200775146484,-2.1792564392089844,0.0
1731876360434.0,0.0,0.0,-20.0,0.0,0.0,0.0,0.0,0.0,0.0,0.0,0.0,0.0,0.0,0.0,0.0,0.0,0.0,2.775801181793213,0.0,0.0,-0.24300585687160492,0.0,0.0,-16384.0,0.0,0.0,-1824.9429931640625,44.947200775146484,-2.1792564392089844,0.0
1731876360484.0,0.0,0.0,-20.0,0.0,0.0,0.0,0.0,0.0,0.0,0.0,0.0,0.0,0.0,0.0,0.0,0.0,0.0,2.216433048248291,0.0,0.0,-0.2491309940814972,0.0,0.0,-16384.0,0.0,0.0,-1870.94189453125,44.966331481933594,-1.7403483390808105,0.0
1731876360501.0,0.0,0.0,-20.0,0.0,0.0,0.0,0.0,0.0,0.0,0.0,0.0,0.0,0.0,0.0,0.0,0.0,0.0,1.9309501647949219,0.0,0.0,-0.251049280166626,0.0,0.0,-16384.0,0.0,0.0,-1885.3480224609375,44.97444534301758,-1.51627779006958,0.0
1731876360517.0,0.0,0.0,-20.0,0.0,0.0,0.0,0.0,0.0,0.0,0.0,0.0,0.0,0.0,0.0,0.0,0.0,0.0,1.6432690620422363,0.0,0.0,-0.2528500258922577,0.0,0.0,-16384.0,0.0,0.0,-1898.871337890625,44.98149108886719,-1.2904436588287354,0.0
1731876360534.0,0.0,0.0,-20.0,0.0,0.0,0.0,0.0,0.0,0.0,0.0,0.0,0.0,0.0,0.0,0.0,0.0,0.0,1.3535242080688477,0.0,0.0,-0.25460726022720337,0.0,0.0,-16384.0,0.0,0.0,-1912.0679931640625,44.98744583129883,-1.0629565715789795,0.0
1731876360551.0,0.0,0.0,-20.0,0.0,0.0,0.0,0.0,0.0,0.0,0.0,0.0,0.0,0.0,0.0,0.0,0.0,0.0,1.0617656707763672,0.0,0.0,-0.2562691867351532,0.0,0.0,-16384.0,0.0,0.0,-1924.548828125,44.992271423339844,-0.8338611721992493,0.0
1731876360601.0,0.0,0.0,-20.0,0.0,0.0,0.0,0.0,0.0,0.0,0.0,0.0,0.0,0.0,0.0,0.0,0.0,0.0,0.4708141088485718,0.0,0.0,-0.2609037756919861,0.0,0.0,-16384.0,0.0,0.0,-1959.35400390625,44.99848175048828,-0.36977240443229675,0.0
1731876360617.0,0.0,0.0,-20.0,0.0,0.0,0.0,0.0,0.0,0.0,0.0,0.0,0.0,0.0,0.0,0.0,0.0,0.0,0.17184041440486908,0.0,0.0,-0.26228636503219604,0.0,0.0,-16384.0,0.0,0.0,-1969.737060546875,44.99979782104492,-0.13496294617652893,0.0
1731876360634.0,0.0,0.0,-20.0,0.0,0.0,0.0,0.0,0.0,0.0,0.0,0.0,0.0,0.0,0.0,0.0,0.0,0.0,-0.12872314453125,0.0,0.0,-0.2636207044124603,0.0,0.0,-16384.0,0.0,0.0,-1979.7578125,44.99988555908203,0.10109883546829224,0.0
1731876360651.0,0.0,0.0,-20.0,0.0,0.0,0.0,0.0,0.0,0.0,0.0,0.0,0.0,0.0,0.0,0.0,0.0,0.0,-0.430816650390625,0.0,0.0,-0.2648625075817108,0.0,0.0,-16384.0,0.0,0.0,-1989.0836181640625,44.99872970581055,0.33835941553115845,0.0
1731876360701.0,0.0,0.0,-20.0,0.0,0.0,0.0,0.0,0.0,0.0,0.0,0.0,0.0,0.0,0.0,0.0,0.0,0.0,-1.040435791015625,0.0,0.0,-0.2681703567504883,0.0,0.0,-16384.0,0.0,0.0,-2013.9251708984375,44.99258041381836,0.8171114325523376,0.0
1731876360717.0,0.0,0.0,-20.0,0.0,0.0,0.0,0.0,0.0,0.0,0.0,0.0,0.0,0.0,0.0,0.0,0.0,0.0,-1.347747802734375,0.0,0.0,-0.2691066265106201,0.0,0.0,-16384.0,0.0,0.0,-2020.9564208984375,44.987552642822266,1.058421015739441,0.0
1731876360734.0,0.0,0.0,-20.0,0.0,0.0,0.0,0.0,0.0,0.0,0.0,0.0,0.0,0.0,0.0,0.0,0.0,0.0,-1.656097412109375,0.0,0.0,-0.26998576521873474,0.0,0.0,-16384.0,0.0,0.0,-2027.55859375,44.981201171875,1.3005146980285645,0.0
1731876360751.0,0.0,0.0,-20.0,0.0,0.0,0.0,0.0,0.0,0.0,0.0,0.0,0.0,0.0,0.0,0.0,0.0,0.0,-1.965484619140625,0.0,0.0,-0.270792156457901,0.0,0.0,-16384.0,0.0,0.0,-2033.614501953125,44.9735221862793,1.5433852672576904,0.0
1731876360801.0,0.0,0.0,-20.0,0.0,0.0,0.0,0.0,0.0,0.0,0.0,0.0,0.0,0.0,0.0,0.0,0.0,0.0,-2.587677001953125,0.0,0.0,-0.2727469801902771,0.0,0.0,-16384.0,0.0,0.0,-2048.294921875,44.9541130065918,2.031665802001953,0.0
1731876360817.0,0.0,0.0,-20.0,0.0,0.0,0.0,0.0,0.0,0.0,0.0,0.0,0.0,0.0,0.0,0.0,0.0,0.0,-2.90020751953125,0.0,0.0,-0.27323442697525024,0.0,0.0,-16384.0,0.0,0.0,-2051.95556640625,44.94236373901367,2.2768449783325195,0.0
1731876360834.0,0.0,0.0,-20.0,0.0,0.0,0.0,0.0,0.0,0.0,0.0,0.0,0.0,0.0,0.0,0.0,0.0,0.0,-3.21331787109375,0.0,0.0,-0.2736634910106659,0.0,0.0,-16384.0,0.0,0.0,-2055.177978515625,44.92924880981445,2.5224111080169678,0.0
1731876360851.0,0.0,0.0,-20.0,0.0,0.0,0.0,0.0,0.0,0.0,0.0,0.0,0.0,0.0,0.0,0.0,0.0,0.0,-3.52691650390625,0.0,0.0,-0.27401202917099,0.0,0.0,-16384.0,0.0,0.0,-2057.79541015625,44.914772033691406,2.768284797668457,0.0
1731876360901.0,0.0,0.0,-20.0,0.0,0.0,0.0,0.0,0.0,0.0,0.0,0.0,0.0,0.0,0.0,0.0,0.0,0.0,-4.155426025390625,0.0,0.0,-0.2745928168296814,0.0,0.0,-16384.0,0.0,0.0,-2062.156982421875,44.8817024230957,3.260803699493408,0.0
1731876360917.0,0.0,0.0,-20.0,0.0,0.0,0.0,0.0,0.0,0.0,0.0,0.0,0.0,0.0,0.0,0.0,0.0,0.0,-4.4700927734375,0.0,0.0,-0.2746335566043854,0.0,0.0,-16384.0,0.0,0.0,-2062.462890625,44.86311721801758,3.507242202758789,0.0
1731876360934.0,0.0,0.0,-20.0,0.0,0.0,0.0,0.0,0.0,0.0,0.0,0.0,0.0,0.0,0.0,0.0,0.0,0.0,-4.784820556640625,0.0,0.0,-0.2745978832244873,0.0,0.0,-16384.0,0.0,0.0,-2062.195068359375,44.84317398071289,3.7536227703094482,0.0
1731876360951.0,0.0,0.0,-20.0,0.0,0.0,0.0,0.0,0.0,0.0,0.0,0.0,0.0,0.0,0.0,0.0,0.0,0.0,-5.0994873046875,0.0,0.0,-0.2744864523410797,0.0,0.0,-16384.0,0.0,0.0,-2061.358154296875,44.82188415527344,3.9998421669006348,0.0
1731876361001.0,0.0,0.0,-20.0,0.0,0.0,0.0,0.0,0.0,0.0,0.0,0.0,0.0,0.0,0.0,0.0,0.0,0.0,-5.72802734375,0.0,0.0,-0.2736971378326416,0.0,0.0,-16384.0,0.0,0.0,-2055.4306640625,44.77531051635742,4.4912919998168945,0.0
1731876361017.0,0.0,0.0,-20.0,0.0,0.0,0.0,0.0,0.0,0.0,0.0,0.0,0.0,0.0,0.0,0.0,0.0,0.0,-6.041656494140625,0.0,0.0,-0.27328822016716003,0.0,0.0,-16384.0,0.0,0.0,-2052.359619140625,44.75005340576172,4.7363176345825195,0.0
1731876361034.0,0.0,0.0,-20.0,0.0,0.0,0.0,0.0,0.0,0.0,0.0,0.0,0.0,0.0,0.0,0.0,0.0,0.0,-6.354827880859375,0.0,0.0,-0.2727998197078705,0.0,0.0,-16384.0,0.0,0.0,-2048.69189453125,44.72349548339844,4.980843544006348,0.0
1731876361050.0,0.0,0.0,-20.0,0.0,0.0,0.0,0.0,0.0,0.0,0.0,0.0,0.0,0.0,0.0,0.0,0.0,0.0,-6.667449951171875,0.0,0.0,-0.27224063873291016,0.0,0.0,-16384.0,0.0,0.0,-2044.492431640625,44.695655822753906,5.22479248046875,0.0
1731876361084.0,0.0,0.0,-20.0,0.0,0.0,0.0,0.0,0.0,0.0,0.0,0.0,0.0,0.0,0.0,0.0,0.0,0.0,-6.979400634765625,0.0,0.0,-0.2708786129951477,0.0,0.0,-16384.0,0.0,0.0,-2034.2637939453125,44.66654586791992,5.468061923980713,0.0
1731876361117.0,0.0,0.0,-20.0,0.0,0.0,0.0,0.0,0.0,0.0,0.0,0.0,0.0,0.0,0.0,0.0,0.0,0.0,-7.59930419921875,0.0,0.0,-0.2692069709300995,0.0,0.0,-16384.0,0.0,0.0,-2021.7099609375,44.60477066040039,5.950995445251465,0.0
1731876361134.0,0.0,0.0,-20.0,0.0,0.0,0.0,0.0,0.0,0.0,0.0,0.0,0.0,0.0,0.0,0.0,0.0,0.0,-7.90777587890625,0.0,0.0,-0.2682752013206482,0.0,0.0,-16384.0,0.0,0.0,-2014.7125244140625,44.572086334228516,6.191053867340088,0.0
1731876361151.0,0.0,0.0,-20.0,0.0,0.0,0.0,0.0,0.0,0.0,0.0,0.0,0.0,0.0,0.0,0.0,0.0,0.0,-8.2152099609375,0.0,0.0,-0.2672358453273773,0.0,0.0,-16384.0,0.0,0.0,-2006.9071044921875,44.53822708129883,6.4301252365112305,0.0
1731876361184.0,0.0,0.0,-20.0,0.0,0.0,0.0,0.0,0.0,0.0,0.0,0.0,0.0,0.0,0.0,0.0,0.0,0.0,-8.52142333984375,0.0,0.0,-0.2649955451488495,0.0,0.0,-16384.0,0.0,0.0,-1990.0826416015625,44.50322341918945,6.668064117431641,0.0
1731876361217.0,0.0,0.0,-20.0,0.0,0.0,0.0,0.0,0.0,0.0,0.0,0.0,0.0,0.0,0.0,0.0,0.0,0.0,-9.1273193359375,0.0,0.0,-0.26244550943374634,0.0,0.0,-16384.0,0.0,0.0,-1970.9322509765625,44.43022537231445,7.138298988342285,0.0
1731876361234.0,0.0,0.0,-20.0,0.0,0.0,0.0,0.0,0.0,0.0,0.0,0.0,0.0,0.0,0.0,0.0,0.0,0.0,-9.428070068359375,0.0,0.0,-0.2610349655151367,0.0,0.0,-16384.0,0.0,0.0,-1960.3392333984375,44.39214324951172,7.371417999267578,0.0
1731876361234.0,0.0,0.0,-20.0,0.0,0.0,0.0,0.0,0.0,0.0,0.0,0.0,0.0,0.0,0.0,0.0,0.0,0.0,-9.428070068359375,0.0,0.0,-0.2610349655151367,0.0,0.0,-16384.0,0.0,0.0,-1960.3392333984375,44.39214324951172,7.371417999267578,0.0
1731876361284.0,0.0,0.0,-20.0,0.0,0.0,0.0,0.0,0.0,0.0,0.0,0.0,0.0,0.0,0.0,0.0,0.0,0.0,-10.024658203125,0.0,0.0,-0.2564202845096588,0.0,0.0,-16384.0,0.0,0.0,-1925.68359375,44.31298065185547,7.833240032196045,0.0
1731876361301.0,0.0,0.0,-20.0,0.0,0.0,0.0,0.0,0.0,0.0,0.0,0.0,0.0,0.0,0.0,0.0,0.0,0.0,-10.3184814453125,0.0,0.0,-0.2547523081302643,0.0,0.0,-16384.0,0.0,0.0,-1913.1573486328125,44.2722282409668,8.060380935668945,0.0
1731876361334.0,0.0,0.0,-20.0,0.0,0.0,0.0,0.0,0.0,0.0,0.0,0.0,0.0,0.0,0.0,0.0,0.0,0.0,-10.90032958984375,0.0,0.0,-0.2512197196483612,0.0,0.0,-16384.0,0.0,0.0,-1886.6280517578125,44.18809127807617,8.509549140930176,0.0
1731876361334.0,0.0,0.0,-20.0,0.0,0.0,0.0,0.0,0.0,0.0,0.0,0.0,0.0,0.0,0.0,0.0,0.0,0.0,-10.90032958984375,0.0,0.0,-0.2512197196483612,0.0,0.0,-16384.0,0.0,0.0,-1886.6280517578125,44.18809127807617,8.509549140930176,0.0
1731876361384.0,0.0,0.0,-20.0,0.0,0.0,0.0,0.0,0.0,0.0,0.0,0.0,0.0,0.0,0.0,0.0,0.0,0.0,-11.473907470703125,0.0,0.0,-0.24533140659332275,0.0,0.0,-16384.0,0.0,0.0,-1842.407470703125,44.10069274902344,8.9514741897583,0.0
1731876361401.0,0.0,0.0,-20.0,0.0,0.0,0.0,0.0,0.0,0.0,0.0,0.0,0.0,0.0,0.0,0.0,0.0,0.0,-11.755035400390625,0.0,0.0,-0.24324071407318115,0.0,0.0,-16384.0,0.0,0.0,-1826.7066650390625,44.05624008178711,9.16775131225586,0.0
1731876361418.0,0.0,0.0,-20.0,0.0,0.0,0.0,0.0,0.0,0.0,0.0,0.0,0.0,0.0,0.0,0.0,0.0,0.0,-12.03375244140625,0.0,0.0,-0.2410583794116974,0.0,0.0,-16384.0,0.0,0.0,-1810.317626953125,44.01112365722656,9.381954193115234,0.0
1731876361434.0,0.0,0.0,-20.0,0.0,0.0,0.0,0.0,0.0,0.0,0.0,0.0,0.0,0.0,0.0,0.0,0.0,0.0,-12.30999755859375,0.0,0.0,-0.23884902894496918,0.0,0.0,-16384.0,0.0,0.0,-1793.7257080078125,43.96537780761719,9.594039916992188,0.0
1731876361451.0,0.0,0.0,-20.0,0.0,0.0,0.0,0.0,0.0,0.0,0.0,0.0,0.0,0.0,0.0,0.0,0.0,0.0,-12.583709716796875,0.0,0.0,-0.23656582832336426,0.0,0.0,-16384.0,0.0,0.0,-1776.5791015625,43.919044494628906,9.803959846496582,0.0
1731876361501.0,0.0,0.0,-20.0,0.0,0.0,0.0,0.0,0.0,0.0,0.0,0.0,0.0,0.0,0.0,0.0,0.0,0.0,-13.120361328125,0.0,0.0,-0.22929070889949799,0.0,0.0,-16384.0,0.0,0.0,-1721.9439697265625,43.82529067993164,10.214883804321289,0.0
1731876361518.0,0.0,0.0,-20.0,0.0,0.0,0.0,0.0,0.0,0.0,0.0,0.0,0.0,0.0,0.0,0.0,0.0,0.0,-13.38311767578125,0.0,0.0,-0.22672134637832642,0.0,0.0,-16384.0,0.0,0.0,-1702.6483154296875,43.777984619140625,10.415757179260254,0.0
1731876361535.0,0.0,0.0,-20.0,0.0,0.0,0.0,0.0,0.0,0.0,0.0,0.0,0.0,0.0,0.0,0.0,0.0,0.0,-13.642913818359375,0.0,0.0,-0.22408811748027802,0.0,0.0,-16384.0,0.0,0.0,-1682.8731689453125,43.730308532714844,10.614151954650879,0.0
1731876361551.0,0.0,0.0,-20.0,0.0,0.0,0.0,0.0,0.0,0.0,0.0,0.0,0.0,0.0,0.0,0.0,0.0,0.0,-13.899688720703125,0.0,0.0,-0.2214512676000595,0.0,0.0,-16384.0,0.0,0.0,-1663.0706787109375,43.68230056762695,10.81002426147461,0.0
1731876361601.0,0.0,0.0,-20.0,0.0,0.0,0.0,0.0,0.0,0.0,0.0,0.0,0.0,0.0,0.0,0.0,0.0,0.0,-14.400848388671875,0.0,0.0,-0.2130056917667389,0.0,0.0,-16384.0,0.0,0.0,-1599.6455078125,43.58607482910156,11.191690444946289,0.0
1731876361618.0,0.0,0.0,-20.0,0.0,0.0,0.0,0.0,0.0,0.0,0.0,0.0,0.0,0.0,0.0,0.0,0.0,0.0,-14.644927978515625,0.0,0.0,-0.2100985050201416,0.0,0.0,-16384.0,0.0,0.0,-1577.81298828125,43.53800582885742,11.377264022827148,0.0
1731876361635.0,0.0,0.0,-20.0,0.0,0.0,0.0,0.0,0.0,0.0,0.0,0.0,0.0,0.0,0.0,0.0,0.0,0.0,-14.88568115234375,0.0,0.0,-0.20710037648677826,0.0,0.0,-16384.0,0.0,0.0,-1555.29736328125,43.48981475830078,11.560107231140137,0.0
1731876361651.0,0.0,0.0,-20.0,0.0,0.0,0.0,0.0,0.0,0.0,0.0,0.0,0.0,0.0,0.0,0.0,0.0,0.0,-15.12298583984375,0.0,0.0,-0.20408877730369568,0.0,0.0,-16384.0,0.0,0.0,-1532.6806640625,43.44156265258789,11.740132331848145,0.0
1731876361685.0,0.0,0.0,-20.0,0.0,0.0,0.0,0.0,0.0,0.0,0.0,0.0,0.0,0.0,0.0,0.0,0.0,0.0,-15.35687255859375,0.0,0.0,-0.19778265058994293,0.0,0.0,-16384.0,0.0,0.0,-1485.3223876953125,43.39327621459961,11.917366027832031,0.0
1731876361718.0,0.0,0.0,-20.0,0.0,0.0,0.0,0.0,0.0,0.0,0.0,0.0,0.0,0.0,0.0,0.0,0.0,0.0,-15.806549072265625,0.0,0.0,-0.1913723200559616,0.0,0.0,-16384.0,0.0,0.0,-1437.181640625,43.29840850830078,12.257560729980469,0.0
1731876361735.0,0.0,0.0,-20.0,0.0,0.0,0.0,0.0,0.0,0.0,0.0,0.0,0.0,0.0,0.0,0.0,0.0,0.0,-16.025848388671875,0.0,0.0,-0.18799042701721191,0.0,0.0,-16384.0,0.0,0.0,-1411.7840576171875,43.25117492675781,12.42319393157959,0.0
1731876361752.0,0.0,0.0,-20.0,0.0,0.0,0.0,0.0,0.0,0.0,0.0,0.0,0.0,0.0,0.0,0.0,0.0,0.0,-16.24127197265625,0.0,0.0,-0.1846657246351242,0.0,0.0,-16384.0,0.0,0.0,-1386.8160400390625,43.20416259765625,12.585723876953125,0.0
1731876361785.0,0.0,0.0,-20.0,0.0,0.0,0.0,0.0,0.0,0.0,0.0,0.0,0.0,0.0,0.0,0.0,0.0,0.0,-16.452880859375,0.0,0.0,-0.1778029203414917,0.0,0.0,-16384.0,0.0,0.0,-1335.2772216796875,43.15738296508789,12.745203018188477,0.0
1731876361818.0,0.0,0.0,-20.0,0.0,0.0,0.0,0.0,0.0,0.0,0.0,0.0,0.0,0.0,0.0,0.0,0.0,0.0,-16.8563232421875,0.0,0.0,-0.17070402204990387,0.0,0.0,-16384.0,0.0,0.0,-1281.9654541015625,43.06657028198242,13.048773765563965,0.0
1731876361835.0,0.0,0.0,-20.0,0.0,0.0,0.0,0.0,0.0,0.0,0.0,0.0,0.0,0.0,0.0,0.0,0.0,0.0,-17.05194091796875,0.0,0.0,-0.16706913709640503,0.0,0.0,-16384.0,0.0,0.0,-1254.6678466796875,43.02177047729492,13.195733070373535,0.0
1731876361835.0,0.0,0.0,-20.0,0.0,0.0,0.0,0.0,0.0,0.0,0.0,0.0,0.0,0.0,0.0,0.0,0.0,0.0,-17.05194091796875,0.0,0.0,-0.16706913709640503,0.0,0.0,-16384.0,0.0,0.0,-1254.6678466796875,43.02177047729492,13.195733070373535,0.0
1731876361885.0,0.0,0.0,-20.0,0.0,0.0,0.0,0.0,0.0,0.0,0.0,0.0,0.0,0.0,0.0,0.0,0.0,0.0,-17.4306640625,0.0,0.0,-0.15596908330917358,0.0,0.0,-16384.0,0.0,0.0,-1171.307861328125,42.93360900878906,13.479815483093262,0.0
1731876361902.0,0.0,0.0,-20.0,0.0,0.0,0.0,0.0,0.0,0.0,0.0,0.0,0.0,0.0,0.0,0.0,0.0,0.0,-17.609405517578125,0.0,0.0,-0.1521531492471695,0.0,0.0,-16384.0,0.0,0.0,-1142.6507568359375,42.8913459777832,13.613685607910156,0.0
1731876361935.0,0.0,0.0,-20.0,0.0,0.0,0.0,0.0,0.0,0.0,0.0,0.0,0.0,0.0,0.0,0.0,0.0,0.0,-17.953704833984375,0.0,0.0,-0.144450843334198,0.0,0.0,-16384.0,0.0,0.0,-1084.807373046875,42.80876541137695,13.871180534362793,0.0
1731876361935.0,0.0,0.0,-20.0,0.0,0.0,0.0,0.0,0.0,0.0,0.0,0.0,0.0,0.0,0.0,0.0,0.0,0.0,-17.953704833984375,0.0,0.0,-0.144450843334198,0.0,0.0,-16384.0,0.0,0.0,-1084.807373046875,42.80876541137695,13.871180534362793,0.0
1731876361985.0,0.0,0.0,-20.0,0.0,0.0,0.0,0.0,0.0,0.0,0.0,0.0,0.0,0.0,0.0,0.0,0.0,0.0,-18.28033447265625,0.0,0.0,-0.13261401653289795,0.0,0.0,-16384.0,0.0,0.0,-995.914306640625,42.7289924621582,14.114995956420898,0.0
1731876362002.0,0.0,0.0,-20.0,0.0,0.0,0.0,0.0,0.0,0.0,0.0,0.0,0.0,0.0,0.0,0.0,0.0,0.0,-18.432281494140625,0.0,0.0,-0.12854410707950592,0.0,0.0,-16384.0,0.0,0.0,-965.349853515625,42.691410064697266,14.228262901306152,0.0
1731876362035.0,0.0,0.0,-20.0,0.0,0.0,0.0,0.0,0.0,0.0,0.0,0.0,0.0,0.0,0.0,0.0,0.0,0.0,-18.722320556640625,0.0,0.0,-0.12043163180351257,0.0,0.0,-16384.0,0.0,0.0,-904.4261474609375,42.618839263916016,14.444189071655273,0.0
1731876362035.0,0.0,0.0,-20.0,0.0,0.0,0.0,0.0,0.0,0.0,0.0,0.0,0.0,0.0,0.0,0.0,0.0,0.0,-18.722320556640625,0.0,0.0,-0.12043163180351257,0.0,0.0,-16384.0,0.0,0.0,-904.4261474609375,42.618839263916016,14.444189071655273,0.0
1731876362085.0,0.0,0.0,-20.0,0.0,0.0,0.0,0.0,0.0,0.0,0.0,0.0,0.0,0.0,0.0,0.0,0.0,0.0,-18.993560791015625,0.0,0.0,-0.10794837027788162,0.0,0.0,-16384.0,0.0,0.0,-810.678466796875,42.54998016357422,14.645785331726074,0.0
1731876362102.0,0.0,0.0,-20.0,0.0,0.0,0.0,0.0,0.0,0.0,0.0,0.0,0.0,0.0,0.0,0.0,0.0,0.0,-19.11724853515625,0.0,0.0,-0.10369475185871124,0.0,0.0,-16384.0,0.0,0.0,-778.7343139648438,42.51826858520508,14.7376070022583,0.0
1731876362135.0,0.0,0.0,-20.0,0.0,0.0,0.0,0.0,0.0,0.0,0.0,0.0,0.0,0.0,0.0,0.0,0.0,0.0,-19.35003662109375,0.0,0.0,-0.09508536010980606,0.0,0.0,-16384.0,0.0,0.0,-714.0789184570312,42.458038330078125,14.910232543945312,0.0
1731876362135.0,0.0,0.0,-20.0,0.0,0.0,0.0,0.0,0.0,0.0,0.0,0.0,0.0,0.0,0.0,0.0,0.0,0.0,-19.35003662109375,0.0,0.0,-0.09508536010980606,0.0,0.0,-16384.0,0.0,0.0,-714.0789184570312,42.458038330078125,14.910232543945312,0.0
1731876362152.0,0.0,0.0,-20.0,0.0,0.0,0.0,0.0,0.0,0.0,0.0,0.0,0.0,0.0,0.0,0.0,0.0,0.0,-19.459014892578125,0.0,0.0,-0.09087418764829636,0.0,0.0,-16384.0,0.0,0.0,-682.4535522460938,42.42959976196289,14.990962982177734,0.0
1731876362202.0,0.0,0.0,-20.0,0.0,0.0,0.0,0.0,0.0,0.0,0.0,0.0,0.0,0.0,0.0,0.0,0.0,0.0,-19.657257080078125,0.0,0.0,-0.07777892053127289,0.0,0.0,-16384.0,0.0,0.0,-584.1097412109375,42.377479553222656,15.137677192687988,0.0
1731876362219.0,0.0,0.0,-20.0,0.0,0.0,0.0,0.0,0.0,0.0,0.0,0.0,0.0,0.0,0.0,0.0,0.0,0.0,-19.746368408203125,0.0,0.0,-0.0733957290649414,0.0,0.0,-16384.0,0.0,0.0,-551.1925659179688,42.353885650634766,15.203568458557129,0.0
1731876362235.0,0.0,0.0,-20.0,0.0,0.0,0.0,0.0,0.0,0.0,0.0,0.0,0.0,0.0,0.0,0.0,0.0,0.0,-19.830474853515625,0.0,0.0,-0.06899230927228928,0.0,0.0,-16384.0,0.0,0.0,-518.1234130859375,42.331520080566406,15.265724182128906,0.0
1731876362252.0,0.0,0.0,-20.0,0.0,0.0,0.0,0.0,0.0,0.0,0.0,0.0,0.0,0.0,0.0,0.0,0.0,0.0,-19.9095458984375,0.0,0.0,-0.06455357372760773,0.0,0.0,-16384.0,0.0,0.0,-484.7890930175781,42.3104133605957,15.324129104614258,0.0
1731876362302.0,0.0,0.0,-20.0,0.0,0.0,0.0,0.0,0.0,0.0,0.0,0.0,0.0,0.0,0.0,0.0,0.0,0.0,-20.047210693359375,0.0,0.0,-0.05110185965895653,0.0,0.0,-16384.0,0.0,0.0,-383.7684326171875,42.27347183227539,15.425745010375977,0.0
1731876362319.0,0.0,0.0,-20.0,0.0,0.0,0.0,0.0,0.0,0.0,0.0,0.0,0.0,0.0,0.0,0.0,0.0,0.0,-20.105743408203125,0.0,0.0,-0.04653270170092583,0.0,0.0,-16384.0,0.0,0.0,-349.45465087890625,42.2576904296875,15.46892261505127,0.0
1731876362335.0,0.0,0.0,-20.0,0.0,0.0,0.0,0.0,0.0,0.0,0.0,0.0,0.0,0.0,0.0,0.0,0.0,0.0,-20.159088134765625,0.0,0.0,-0.0420827642083168,0.0,0.0,-16384.0,0.0,0.0,-316.03619384765625,42.24327087402344,15.508258819580078,0.0
1731876362352.0,0.0,0.0,-20.0,0.0,0.0,0.0,0.0,0.0,0.0,0.0,0.0,0.0,0.0,0.0,0.0,0.0,0.0,-20.207305908203125,0.0,0.0,-0.03757166862487793,0.0,0.0,-16384.0,0.0,0.0,-282.158447265625,42.230201721191406,15.543803215026855,0.0
1731876362385.0,0.0,0.0,-20.0,0.0,0.0,0.0,0.0,0.0,0.0,0.0,0.0,0.0,0.0,0.0,0.0,0.0,0.0,-20.2503662109375,0.0,0.0,-0.028419628739356995,0.0,0.0,-16384.0,0.0,0.0,-213.4277801513672,42.21851348876953,15.57553768157959,0.0
1731876362419.0,0.0,0.0,-20.0,0.0,0.0,0.0,0.0,0.0,0.0,0.0,0.0,0.0,0.0,0.0,0.0,0.0,0.0,-20.310333251953125,0.0,0.0,-0.01933589018881321,0.0,0.0,-16384.0,0.0,0.0,-145.21006774902344,42.202186584472656,15.61971664428711,0.0
1731876362435.0,0.0,0.0,-20.0,0.0,0.0,0.0,0.0,0.0,0.0,0.0,0.0,0.0,0.0,0.0,0.0,0.0,0.0,-20.332489013671875,0.0,0.0,-0.014785402454435825,0.0,0.0,-16384.0,0.0,0.0,-111.03648376464844,42.19614028930664,15.63603401184082,0.0
1731876362435.0,0.0,0.0,-20.0,0.0,0.0,0.0,0.0,0.0,0.0,0.0,0.0,0.0,0.0,0.0,0.0,0.0,0.0,-20.332489013671875,0.0,0.0,-0.014785402454435825,0.0,0.0,-16384.0,0.0,0.0,-111.03648376464844,42.19614028930664,15.63603401184082,0.0
1731876362485.0,0.0,0.0,-20.0,0.0,0.0,0.0,0.0,0.0,0.0,0.0,0.0,0.0,0.0,0.0,0.0,0.0,0.0,-20.361114501953125,0.0,0.0,-0.0010306972544640303,0.0,0.0,-16384.0,0.0,0.0,-7.7404046058654785,42.18832778930664,15.657113075256348,0.0
1731876362502.0,0.0,0.0,-20.0,0.0,0.0,0.0,0.0,0.0,0.0,0.0,0.0,0.0,0.0,0.0,0.0,0.0,0.0,-20.3623046875,0.0,0.0,0.0034950291737914085,0.0,0.0,-16384.0,0.0,0.0,26.247222900390625,42.1879997253418,15.657990455627441,0.0
1731876362535.0,0.0,0.0,-20.0,0.0,0.0,0.0,0.0,0.0,0.0,0.0,0.0,0.0,0.0,0.0,0.0,0.0,0.0,-20.349090576171875,0.0,0.0,0.012743339873850346,0.0,0.0,-16384.0,0.0,0.0,95.70085144042969,42.19160842895508,15.648259162902832,0.0
1731876362535.0,0.0,0.0,-20.0,0.0,0.0,0.0,0.0,0.0,0.0,0.0,0.0,0.0,0.0,0.0,0.0,0.0,0.0,-20.349090576171875,0.0,0.0,0.012743339873850346,0.0,0.0,-16384.0,0.0,0.0,95.70085144042969,42.19160842895508,15.648259162902832,0.0
1731876362552.0,0.0,0.0,-20.0,0.0,0.0,0.0,0.0,0.0,0.0,0.0,0.0,0.0,0.0,0.0,0.0,0.0,0.0,-20.334503173828125,0.0,0.0,0.01729581132531166,0.0,0.0,-16384.0,0.0,0.0,129.8893280029297,42.19559097290039,15.637518882751465,0.0
1731876362602.0,0.0,0.0,-20.0,0.0,0.0,0.0,0.0,0.0,0.0,0.0,0.0,0.0,0.0,0.0,0.0,0.0,0.0,-20.284332275390625,0.0,0.0,0.031002890318632126,0.0,0.0,-16384.0,0.0,0.0,232.82774353027344,42.20927047729492,15.600563049316406,0.0
1731876362619.0,0.0,0.0,-20.0,0.0,0.0,0.0,0.0,0.0,0.0,0.0,0.0,0.0,0.0,0.0,0.0,0.0,0.0,-20.248809814453125,0.0,0.0,0.03557847812771797,0.0,0.0,-16384.0,0.0,0.0,267.1898193359375,42.21893310546875,15.574390411376953,0.0
1731876362636.0,0.0,0.0,-20.0,0.0,0.0,0.0,0.0,0.0,0.0,0.0,0.0,0.0,0.0,0.0,0.0,0.0,0.0,-20.208038330078125,0.0,0.0,0.040094293653964996,0.0,0.0,-16384.0,0.0,0.0,301.10302734375,42.230003356933594,15.54434585571289,0.0
1731876362685.0,0.0,0.0,-20.0,0.0,0.0,0.0,0.0,0.0,0.0,0.0,0.0,0.0,0.0,0.0,0.0,0.0,0.0,-20.1109619140625,0.0,0.0,0.05352115258574486,0.0,0.0,-16384.0,0.0,0.0,401.93701171875,42.256282806396484,15.472771644592285,0.0
1731876362702.0,0.0,0.0,-20.0,0.0,0.0,0.0,0.0,0.0,0.0,0.0,0.0,0.0,0.0,0.0,0.0,0.0,0.0,-20.04962158203125,0.0,0.0,0.05803465098142624,0.0,0.0,-16384.0,0.0,0.0,435.83282470703125,42.27281951904297,15.427522659301758,0.0
1731876362719.0,0.0,0.0,-20.0,0.0,0.0,0.0,0.0,0.0,0.0,0.0,0.0,0.0,0.0,0.0,0.0,0.0,0.0,-19.983123779296875,0.0,0.0,0.06256444752216339,0.0,0.0,-16384.0,0.0,0.0,469.85101318359375,42.29069900512695,15.378450393676758,0.0
1731876362735.0,0.0,0.0,-20.0,0.0,0.0,0.0,0.0,0.0,0.0,0.0,0.0,0.0,0.0,0.0,0.0,0.0,0.0,-19.91143798828125,0.0,0.0,0.06699509173631668,0.0,0.0,-16384.0,0.0,0.0,503.12457275390625,42.30990982055664,15.32552719116211,0.0
1731876362752.0,0.0,0.0,-20.0,0.0,0.0,0.0,0.0,0.0,0.0,0.0,0.0,0.0,0.0,0.0,0.0,0.0,0.0,-19.83465576171875,0.0,0.0,0.0714072585105896,0.0,0.0,-16384.0,0.0,0.0,536.2593994140625,42.330406188964844,15.268814086914062,0.0
1731876362802.0,0.0,0.0,-20.0,0.0,0.0,0.0,0.0,0.0,0.0,0.0,0.0,0.0,0.0,0.0,0.0,0.0,0.0,-19.66082763671875,0.0,0.0,0.08460059016942978,0.0,0.0,-16384.0,0.0,0.0,635.339599609375,42.37653732299805,15.140317916870117,0.0
1731876362819.0,0.0,0.0,-20.0,0.0,0.0,0.0,0.0,0.0,0.0,0.0,0.0,0.0,0.0,0.0,0.0,0.0,0.0,-19.56390380859375,0.0,0.0,0.08897394686937332,0.0,0.0,-16384.0,0.0,0.0,668.1829833984375,42.4020881652832,15.068610191345215,0.0
1731876362836.0,0.0,0.0,-20.0,0.0,0.0,0.0,0.0,0.0,0.0,0.0,0.0,0.0,0.0,0.0,0.0,0.0,0.0,-19.461944580078125,0.0,0.0,0.09332222491502762,0.0,0.0,-16384.0,0.0,0.0,700.8380126953125,42.4288330078125,14.993131637573242,0.0
1731876362853.0,0.0,0.0,-20.0,0.0,0.0,0.0,0.0,0.0,0.0,0.0,0.0,0.0,0.0,0.0,0.0,0.0,0.0,-19.35498046875,0.0,0.0,0.0976598858833313,0.0,0.0,-16384.0,0.0,0.0,733.4132690429688,42.456748962402344,14.913894653320312,0.0
1731876362886.0,0.0,0.0,-20.0,0.0,0.0,0.0,0.0,0.0,0.0,0.0,0.0,0.0,0.0,0.0,0.0,0.0,0.0,-19.243072509765625,0.0,0.0,0.1061735525727272,0.0,0.0,-16384.0,0.0,0.0,797.3497924804688,42.48579788208008,14.830942153930664,0.0
1731876362919.0,0.0,0.0,-20.0,0.0,0.0,0.0,0.0,0.0,0.0,0.0,0.0,0.0,0.0,0.0,0.0,0.0,0.0,-18.994964599609375,0.0,0.0,0.11449270695447922,0.0,0.0,-16384.0,0.0,0.0,859.8256225585938,42.54962158203125,14.646827697753906,0.0
1731876362936.0,0.0,0.0,-20.0,0.0,0.0,0.0,0.0,0.0,0.0,0.0,0.0,0.0,0.0,0.0,0.0,0.0,0.0,-18.863739013671875,0.0,0.0,0.11869657039642334,0.0,0.0,-16384.0,0.0,0.0,891.3960571289062,42.58305740356445,14.549337387084961,0.0
1731876362953.0,0.0,0.0,-20.0,0.0,0.0,0.0,0.0,0.0,0.0,0.0,0.0,0.0,0.0,0.0,0.0,0.0,0.0,-18.72772216796875,0.0,0.0,0.12283652275800705,0.0,0.0,-16384.0,0.0,0.0,922.486572265625,42.61747741699219,14.448206901550293,0.0
1731876362986.0,0.0,0.0,-20.0,0.0,0.0,0.0,0.0,0.0,0.0,0.0,0.0,0.0,0.0,0.0,0.0,0.0,0.0,-18.58697509765625,0.0,0.0,0.1309967190027237,0.0,0.0,-16384.0,0.0,0.0,983.7686157226562,42.65283966064453,14.343474388122559,0.0
1731876363019.0,0.0,0.0,-20.0,0.0,0.0,0.0,0.0,0.0,0.0,0.0,0.0,0.0,0.0,0.0,0.0,0.0,0.0,-18.282196044921875,0.0,0.0,0.13886526226997375,0.0,0.0,-16384.0,0.0,0.0,1042.8603515625,42.72853469848633,14.116384506225586,0.0
1731876363036.0,0.0,0.0,-20.0,0.0,0.0,0.0,0.0,0.0,0.0,0.0,0.0,0.0,0.0,0.0,0.0,0.0,0.0,-18.123077392578125,0.0,0.0,0.14282245934009552,0.0,0.0,-16384.0,0.0,0.0,1072.578369140625,42.767574310302734,13.99766731262207,0.0
1731876363052.0,0.0,0.0,-20.0,0.0,0.0,0.0,0.0,0.0,0.0,0.0,0.0,0.0,0.0,0.0,0.0,0.0,0.0,-17.95941162109375,0.0,0.0,0.1466827243566513,0.0,0.0,-16384.0,0.0,0.0,1101.5684814453125,42.8073844909668,13.875444412231445,0.0
1731876363086.0,0.0,0.0,-20.0,0.0,0.0,0.0,0.0,0.0,0.0,0.0,0.0,0.0,0.0,0.0,0.0,0.0,0.0,-17.79132080078125,0.0,0.0,0.15432345867156982,0.0,0.0,-16384.0,0.0,0.0,1158.949462890625,42.847904205322266,13.749798774719238,0.0
1731876363103.0,0.0,0.0,-20.0,0.0,0.0,0.0,0.0,0.0,0.0,0.0,0.0,0.0,0.0,0.0,0.0,0.0,0.0,-17.614471435546875,0.0,0.0,0.1581282764673233,0.0,0.0,-16384.0,0.0,0.0,1187.523193359375,42.890140533447266,13.617478370666504,0.0
1731876363136.0,0.0,0.0,-20.0,0.0,0.0,0.0,0.0,0.0,0.0,0.0,0.0,0.0,0.0,0.0,0.0,0.0,0.0,-17.247833251953125,0.0,0.0,0.16550861299037933,0.0,0.0,-16384.0,0.0,0.0,1242.948486328125,42.976402282714844,13.34274673461914,0.0
1731876363136.0,0.0,0.0,-20.0,0.0,0.0,0.0,0.0,0.0,0.0,0.0,0.0,0.0,0.0,0.0,0.0,0.0,0.0,-17.247833251953125,0.0,0.0,0.16550861299037933,0.0,0.0,-16384.0,0.0,0.0,1242.948486328125,42.976402282714844,13.34274673461914,0.0
1731876363186.0,0.0,0.0,-20.0,0.0,0.0,0.0,0.0,0.0,0.0,0.0,0.0,0.0,0.0,0.0,0.0,0.0,0.0,-16.86431884765625,0.0,0.0,0.17630398273468018,0.0,0.0,-16384.0,0.0,0.0,1324.0203857421875,43.06474685668945,13.05478286743164,0.0
1731876363203.0,0.0,0.0,-20.0,0.0,0.0,0.0,0.0,0.0,0.0,0.0,0.0,0.0,0.0,0.0,0.0,0.0,0.0,-16.66229248046875,0.0,0.0,0.1797500103712082,0.0,0.0,-16384.0,0.0,0.0,1349.899658203125,43.110511779785156,12.902854919433594,0.0
1731876363236.0,0.0,0.0,-20.0,0.0,0.0,0.0,0.0,0.0,0.0,0.0,0.0,0.0,0.0,0.0,0.0,0.0,0.0,-16.246337890625,0.0,0.0,0.1865685135126114,0.0,0.0,-16384.0,0.0,0.0,1401.105712890625,43.20304870605469,12.589543342590332,0.0
1731876363236.0,0.0,0.0,-20.0,0.0,0.0,0.0,0.0,0.0,0.0,0.0,0.0,0.0,0.0,0.0,0.0,0.0,0.0,-16.246337890625,0.0,0.0,0.1865685135126114,0.0,0.0,-16384.0,0.0,0.0,1401.105712890625,43.20304870605469,12.589543342590332,0.0
1731876363286.0,0.0,0.0,-20.0,0.0,0.0,0.0,0.0,0.0,0.0,0.0,0.0,0.0,0.0,0.0,0.0,0.0,0.0,-15.814849853515625,0.0,0.0,0.19644063711166382,0.0,0.0,-16384.0,0.0,0.0,1475.244140625,43.296634674072266,12.263833045959473,0.0
1731876363303.0,0.0,0.0,-20.0,0.0,0.0,0.0,0.0,0.0,0.0,0.0,0.0,0.0,0.0,0.0,0.0,0.0,0.0,-15.589752197265625,0.0,0.0,0.19959965348243713,0.0,0.0,-16384.0,0.0,0.0,1498.9678955078125,43.344478607177734,12.093640327453613,0.0
1731876363336.0,0.0,0.0,-20.0,0.0,0.0,0.0,0.0,0.0,0.0,0.0,0.0,0.0,0.0,0.0,0.0,0.0,0.0,-15.12872314453125,0.0,0.0,0.20582950115203857,0.0,0.0,-16384.0,0.0,0.0,1545.7532958984375,43.44038772583008,11.74448299407959,0.0
1731876363336.0,0.0,0.0,-20.0,0.0,0.0,0.0,0.0,0.0,0.0,0.0,0.0,0.0,0.0,0.0,0.0,0.0,0.0,-15.12872314453125,0.0,0.0,0.20582950115203857,0.0,0.0,-16384.0,0.0,0.0,1545.7532958984375,43.44038772583008,11.74448299407959,0.0
1731876363353.0,0.0,0.0,-20.0,0.0,0.0,0.0,0.0,0.0,0.0,0.0,0.0,0.0,0.0,0.0,0.0,0.0,0.0,-14.89288330078125,0.0,0.0,0.20874324440956116,0.0,0.0,-16384.0,0.0,0.0,1567.6351318359375,43.48836135864258,11.565573692321777,0.0
1731876363403.0,0.0,0.0,-20.0,0.0,0.0,0.0,0.0,0.0,0.0,0.0,0.0,0.0,0.0,0.0,0.0,0.0,0.0,-14.407745361328125,0.0,0.0,0.21743059158325195,0.0,0.0,-16384.0,0.0,0.0,1632.8759765625,43.5847282409668,11.196937561035156,0.0
1731876363419.0,0.0,0.0,-20.0,0.0,0.0,0.0,0.0,0.0,0.0,0.0,0.0,0.0,0.0,0.0,0.0,0.0,0.0,-14.158599853515625,0.0,0.0,0.22020581364631653,0.0,0.0,-16384.0,0.0,0.0,1653.717529296875,43.63300704956055,11.007307052612305,0.0
1731876363436.0,0.0,0.0,-20.0,0.0,0.0,0.0,0.0,0.0,0.0,0.0,0.0,0.0,0.0,0.0,0.0,0.0,0.0,-13.90625,0.0,0.0,0.22291944921016693,0.0,0.0,-16384.0,0.0,0.0,1674.0965576171875,43.681060791015625,10.815027236938477,0.0
1731876363453.0,0.0,0.0,-20.0,0.0,0.0,0.0,0.0,0.0,0.0,0.0,0.0,0.0,0.0,0.0,0.0,0.0,0.0,-13.65081787109375,0.0,0.0,0.22553251683712006,0.0,0.0,-16384.0,0.0,0.0,1693.7203369140625,43.728843688964844,10.620184898376465,0.0
1731876363486.0,0.0,0.0,-20.0,0.0,0.0,0.0,0.0,0.0,0.0,0.0,0.0,0.0,0.0,0.0,0.0,0.0,0.0,-13.392364501953125,0.0,0.0,0.23062877357006073,0.0,0.0,-16384.0,0.0,0.0,1731.99267578125,43.776302337646484,10.422821998596191,0.0
1731876363520.0,0.0,0.0,-20.0,0.0,0.0,0.0,0.0,0.0,0.0,0.0,0.0,0.0,0.0,0.0,0.0,0.0,0.0,-12.860992431640625,0.0,0.0,0.23552070558071136,0.0,0.0,-16384.0,0.0,0.0,1768.73046875,43.8710823059082,10.016389846801758,0.0
1731876363536.0,0.0,0.0,-20.0,0.0,0.0,0.0,0.0,0.0,0.0,0.0,0.0,0.0,0.0,0.0,0.0,0.0,0.0,-12.59112548828125,0.0,0.0,0.23783323168754578,0.0,0.0,-16384.0,0.0,0.0,1786.09716796875,43.91777420043945,9.809642791748047,0.0
1731876363553.0,0.0,0.0,-20.0,0.0,0.0,0.0,0.0,0.0,0.0,0.0,0.0,0.0,0.0,0.0,0.0,0.0,0.0,-12.318572998046875,0.0,0.0,0.24008020758628845,0.0,0.0,-16384.0,0.0,0.0,1802.9716796875,43.96393966674805,9.600619316101074,0.0
1731876363586.0,0.0,0.0,-20.0,0.0,0.0,0.0,0.0,0.0,0.0,0.0,0.0,0.0,0.0,0.0,0.0,0.0,0.0,-12.04345703125,0.0,0.0,0.24439801275730133,0.0,0.0,-16384.0,0.0,0.0,1835.3978271484375,44.0095329284668,9.389409065246582,0.0
1731876363620.0,0.0,0.0,-20.0,0.0,0.0,0.0,0.0,0.0,0.0,0.0,0.0,0.0,0.0,0.0,0.0,0.0,0.0,-11.480987548828125,0.0,0.0,0.24844342470169067,0.0,0.0,-16384.0,0.0,0.0,1865.7784423828125,44.099586486816406,8.956924438476562,0.0
1731876363636.0,0.0,0.0,-20.0,0.0,0.0,0.0,0.0,0.0,0.0,0.0,0.0,0.0,0.0,0.0,0.0,0.0,0.0,-11.1962890625,0.0,0.0,0.25037288665771484,0.0,0.0,-16384.0,0.0,0.0,1880.2684326171875,44.143550872802734,8.737686157226562,0.0
1731876363653.0,0.0,0.0,-20.0,0.0,0.0,0.0,0.0,0.0,0.0,0.0,0.0,0.0,0.0,0.0,0.0,0.0,0.0,-10.90936279296875,0.0,0.0,0.25221192836761475,0.0,0.0,-16384.0,0.0,0.0,1894.079345703125,44.18675231933594,8.516514778137207,0.0
1731876363670.0,0.0,0.0,-20.0,0.0,0.0,0.0,0.0,0.0,0.0,0.0,0.0,0.0,0.0,0.0,0.0,0.0,0.0,-10.620361328125,0.0,0.0,0.254013329744339,0.0,0.0,-16384.0,0.0,0.0,1907.607666015625,44.22914505004883,8.293529510498047,0.0
1731876363703.0,0.0,0.0,-20.0,0.0,0.0,0.0,0.0,0.0,0.0,0.0,0.0,0.0,0.0,0.0,0.0,0.0,0.0,-10.32928466796875,0.0,0.0,0.2573334872722626,0.0,0.0,-16384.0,0.0,0.0,1932.5416259765625,44.27070617675781,8.06872844696045,0.0
1731876363736.0,0.0,0.0,-20.0,0.0,0.0,0.0,0.0,0.0,0.0,0.0,0.0,0.0,0.0,0.0,0.0,0.0,0.0,-9.73773193359375,0.0,0.0,0.26038166880607605,0.0,0.0,-16384.0,0.0,0.0,1955.43310546875,44.351654052734375,7.611231327056885,0.0
1731876363736.0,0.0,0.0,-20.0,0.0,0.0,0.0,0.0,0.0,0.0,0.0,0.0,0.0,0.0,0.0,0.0,0.0,0.0,-9.73773193359375,0.0,0.0,0.26038166880607605,0.0,0.0,-16384.0,0.0,0.0,1955.43310546875,44.351654052734375,7.611231327056885,0.0
1731876363786.0,0.0,0.0,-20.0,0.0,0.0,0.0,0.0,0.0,0.0,0.0,0.0,0.0,0.0,0.0,0.0,0.0,0.0,-9.139312744140625,0.0,0.0,0.2644196152687073,0.0,0.0,-16384.0,0.0,0.0,1985.757568359375,44.42872619628906,7.147598743438721,0.0
1731876363803.0,0.0,0.0,-20.0,0.0,0.0,0.0,0.0,0.0,0.0,0.0,0.0,0.0,0.0,0.0,0.0,0.0,0.0,-8.8363037109375,0.0,0.0,0.2656107246875763,0.0,0.0,-16384.0,0.0,0.0,1994.70263671875,44.465904235839844,6.912538051605225,0.0
1731876363820.0,0.0,0.0,-20.0,0.0,0.0,0.0,0.0,0.0,0.0,0.0,0.0,0.0,0.0,0.0,0.0,0.0,0.0,-8.531951904296875,0.0,0.0,0.26674512028694153,0.0,0.0,-16384.0,0.0,0.0,2003.2218017578125,44.50199508666992,6.676242351531982,0.0
1731876363836.0,0.0,0.0,-20.0,0.0,0.0,0.0,0.0,0.0,0.0,0.0,0.0,0.0,0.0,0.0,0.0,0.0,0.0,-8.226287841796875,0.0,0.0,0.2677932381629944,0.0,0.0,-16384.0,0.0,0.0,2011.093017578125,44.53697967529297,6.438737392425537,0.0
1731876363853.0,0.0,0.0,-20.0,0.0,0.0,0.0,0.0,0.0,0.0,0.0,0.0,0.0,0.0,0.0,0.0,0.0,0.0,-7.919403076171875,0.0,0.0,0.268784761428833,0.0,0.0,-16384.0,0.0,0.0,2018.5391845703125,44.57082748413086,6.200098991394043,0.0
1731876363886.0,0.0,0.0,-20.0,0.0,0.0,0.0,0.0,0.0,0.0,0.0,0.0,0.0,0.0,0.0,0.0,0.0,0.0,-7.611419677734375,0.0,0.0,0.27050817012786865,0.0,0.0,-16384.0,0.0,0.0,2031.4818115234375,44.603511810302734,5.960428237915039,0.0
1731876363920.0,0.0,0.0,-20.0,0.0,0.0,0.0,0.0,0.0,0.0,0.0,0.0,0.0,0.0,0.0,0.0,0.0,0.0,-6.990570068359375,0.0,0.0,0.2719520926475525,0.0,0.0,-16384.0,0.0,0.0,2042.325439453125,44.66547775268555,5.476769924163818,0.0
1731876363937.0,0.0,0.0,-20.0,0.0,0.0,0.0,0.0,0.0,0.0,0.0,0.0,0.0,0.0,0.0,0.0,0.0,0.0,-6.678924560546875,0.0,0.0,0.2725563645362854,0.0,0.0,-16384.0,0.0,0.0,2046.863525390625,44.69460678100586,5.233743190765381,0.0
1731876363953.0,0.0,0.0,-20.0,0.0,0.0,0.0,0.0,0.0,0.0,0.0,0.0,0.0,0.0,0.0,0.0,0.0,0.0,-6.366607666015625,0.0,0.0,0.27307847142219543,0.0,0.0,-16384.0,0.0,0.0,2050.784423828125,44.72247314453125,4.990038871765137,0.0
1731876363970.0,0.0,0.0,-20.0,0.0,0.0,0.0,0.0,0.0,0.0,0.0,0.0,0.0,0.0,0.0,0.0,0.0,0.0,-6.053680419921875,0.0,0.0,0.2735253572463989,0.0,0.0,-16384.0,0.0,0.0,2054.140380859375,44.74905776977539,4.745707988739014,0.0
1731876364020.0,0.0,0.0,-20.0,0.0,0.0,0.0,0.0,0.0,0.0,0.0,0.0,0.0,0.0,0.0,0.0,0.0,0.0,-5.426055908203125,0.0,0.0,0.2744152545928955,0.0,0.0,-16384.0,0.0,0.0,2060.823486328125,44.79835510253906,4.255247116088867,0.0
1731876364037.0,0.0,0.0,-20.0,0.0,0.0,0.0,0.0,0.0,0.0,0.0,0.0,0.0,0.0,0.0,0.0,0.0,0.0,-5.111572265625,0.0,0.0,0.2745607793331146,0.0,0.0,-16384.0,0.0,0.0,2061.91650390625,44.821041107177734,4.009296417236328,0.0
1731876364053.0,0.0,0.0,-20.0,0.0,0.0,0.0,0.0,0.0,0.0,0.0,0.0,0.0,0.0,0.0,0.0,0.0,0.0,-4.796966552734375,0.0,0.0,0.2746279537677765,0.0,0.0,-16384.0,0.0,0.0,2062.4208984375,44.842376708984375,3.7631287574768066,0.0
1731876364070.0,0.0,0.0,-20.0,0.0,0.0,0.0,0.0,0.0,0.0,0.0,0.0,0.0,0.0,0.0,0.0,0.0,0.0,-4.482269287109375,0.0,0.0,0.274618923664093,0.0,0.0,-16384.0,0.0,0.0,2062.35302734375,44.862369537353516,3.5167763233184814,0.0
1731876364104.0,0.0,0.0,-20.0,0.0,0.0,0.0,0.0,0.0,0.0,0.0,0.0,0.0,0.0,0.0,0.0,0.0,0.0,-4.167572021484375,0.0,0.0,0.2743695378303528,0.0,0.0,-16384.0,0.0,0.0,2060.480224609375,44.88100814819336,3.2703182697296143,0.0
1731876364137.0,0.0,0.0,-20.0,0.0,0.0,0.0,0.0,0.0,0.0,0.0,0.0,0.0,0.0,0.0,0.0,0.0,0.0,-3.539031982421875,0.0,0.0,0.27382373809814453,0.0,0.0,-16384.0,0.0,0.0,2056.38134765625,44.9141845703125,2.777782440185547,0.0
1731876364154.0,0.0,0.0,-20.0,0.0,0.0,0.0,0.0,0.0,0.0,0.0,0.0,0.0,0.0,0.0,0.0,0.0,0.0,-3.225250244140625,0.0,0.0,0.2734282910823822,0.0,0.0,-16384.0,0.0,0.0,2053.41162109375,44.9287223815918,2.5317680835723877,0.0
1731876364170.0,0.0,0.0,-20.0,0.0,0.0,0.0,0.0,0.0,0.0,0.0,0.0,0.0,0.0,0.0,0.0,0.0,0.0,-2.91192626953125,0.0,0.0,0.27296024560928345,0.0,0.0,-16384.0,0.0,0.0,2049.896484375,44.94189453125,2.2860372066497803,0.0
1731876364204.0,0.0,0.0,-20.0,0.0,0.0,0.0,0.0,0.0,0.0,0.0,0.0,0.0,0.0,0.0,0.0,0.0,0.0,-2.599151611328125,0.0,0.0,0.2717928886413574,0.0,0.0,-16384.0,0.0,0.0,2041.1298828125,44.953704833984375,2.0406689643859863,0.0
