ts,linPos_x,linPos_y,linPos_z,linVel_x,linVel_y,linVel_z,linAcc_x,linAcc_y,linAcc_z,force_x,force_y,force_z,torque_x,torque_y,torque_z,euler_x,euler_y,euler_z,angVel_x,angVel_y,angVel_z,accelerometer_x,accelerometer_y,accelerometer_z,gyroscope_x,gyroscope_y,gyroscope_z,magnetometer_x,magnetometer_y,magnetometer_z
1731876973135.0,0.0,0.0,-20.0,0.0,0.0,0.0,0.0,0.0,0.0,0.0,0.0,0.0,0.0,0.0,0.0,0.0,0.0,0.0,0.0,0.0,0.0,201.01467895507812,-144.3632049560547,-16488.97265625,-65.61183166503906,-10.475611686706543,-92.71866607666016,44.36543655395508,0.420085608959198,0.29579854011535645
1731876973151.0,0.0,0.0,-20.0,0.0,0.0,0.0,0.0,0.0,0.0,0.0,0.0,0.0,0.0,0.0,0.0,0.0,0.0,0.0,0.0,0.0,0.0,106.88485717773438,5.8695759773254395,-16577.673828125,-87.9811782836914,9.086834907531738,-16.069255828857422,45.50605392456055,0.014849941246211529,-0.040383677929639816
1731876973168.0,0.0,0.0,-20.0,0.0,0.0,0.0,0.0,0.0,0.0,0.0,0.0,0.0,0.0,0.0,0.0,0.0,0.0,0.0,0.0,0.0,0.0,-84.74876403808594,107.36653137207031,-16333.3232421875,-3.865574359893799,-5.951789855957031,-139.5087432861328,45.241737365722656,0.6490193009376526,0.3194354772567749
1731876973185.0,0.0,0.0,-20.0,0.0,0.0,0.0,0.0,0.0,0.0,0.0,0.0,0.0,0.0,0.0,0.0,0.0,0.0,0.0,0.0,0.0,0.0,6.547181129455566,-56.504486083984375,-16442.69140625,7.50740909576416,-80.41636657714844,105.6990737915039,44.83561706542969,0.42224207520484924,0.25089362263679504
1731876973201.0,0.0,0.0,-20.0,0.0,0.0,0.0,0.0,0.0,0.0,0.0,0.0,0.0,0.0,0.0,0.0,0.0,0.0,0.0,0.0,0.0,0.0,198.87705993652344,165.5823211669922,-16196.814453125,-37.92811584472656,79.7066650390625,-73.9714584350586,45.5501823425293,-0.3886471688747406,-0.06779439002275467
1731876973251.0,0.0,0.0,-20.0,0.0,0.0,0.0,0.0,0.0,0.0,0.0,0.0,0.0,0.0,0.0,0.0,0.0,0.0,0.0,0.0,0.0,0.0,63.98087692260742,-146.1040802001953,-16310.681640625,70.57759094238281,-119.54820251464844,23.04068946838379,44.81499481201172,0.6598802208900452,0.044285401701927185
1731876973268.0,0.0,0.0,-20.0,0.0,0.0,0.0,0.0,0.0,0.0,0.0,0.0,0.0,0.0,0.0,0.0,0.0,0.0,0.0,0.0,0.0,0.0,10.576693534851074,14.929557800292969,-16316.2080078125,69.22913360595703,71.94723510742188,-80.10391235351562,44.76298904418945,0.020396098494529724,-0.34358158707618713
1731876973285.0,0.0,0.0,-20.0,0.0,0.0,0.0,0.0,0.0,0.0,0.0,0.0,0.0,0.0,0.0,0.0,0.0,0.0,0.0,0.0,0.0,0.0,145.6672821044922,99.77650451660156,-16282.62109375,-70.6742172241211,-3.3679122924804688,-99.05912780761719,45.253028869628906,-0.5928354859352112,0.20721596479415894
1731876973302.0,0.0,0.0,-20.0,0.0,0.0,0.0,0.0,0.0,0.0,0.0,0.0,0.0,0.0,0.0,0.0,0.0,0.0,0.0,0.0,0.0,0.0,10.87098217010498,-58.60026168823242,-16314.111328125,-12.226037979125977,3.3559730052948,-23.94161033630371,45.164398193359375,-0.0033343725372105837,-0.07402437925338745
1731876973335.0,0.0,0.0,-20.0,0.0,0.0,0.0,0.0,0.0,0.0,0.0,0.0,0.0,0.0,0.0,0.0,0.0,0.0,0.0,0.0,0.0,0.0,-95.31149291992188,40.05989456176758,-16598.794921875,54.743438720703125,30.369110107421875,20.266170501708984,45.366798400878906,-0.143519788980484,0.10668864846229553
1731876973368.0,0.0,0.0,-20.0,0.0,0.0,0.0,0.0,0.0,0.0,0.0,0.0,0.0,0.0,0.0,0.0,0.0,0.0,0.0,0.0,0.0,0.0,171.63394165039062,51.613525390625,-16442.345703125,36.09352493286133,-13.832746505737305,-5.882301330566406,44.87154006958008,0.08846224099397659,-0.13385649025440216
1731876973385.0,0.0,0.0,-20.0,0.0,0.0,0.0,0.0,0.0,0.0,0.0,0.0,0.0,0.0,0.0,0.0,0.0,0.0,0.0,0.0,0.0,0.0,27.433151245117188,219.91310119628906,-16509.3671875,-8.705490112304688,82.5265884399414,10.357128143310547,45.3109016418457,0.11619904637336731,0.24931040406227112
1731876973402.0,0.0,0.0,-20.0,0.0,0.0,0.0,0.0,0.0,0.0,0.0,0.0,0.0,0.0,0.0,0.0,0.0,0.0,0.0,0.0,0.0,0.0,43.30421829223633,155.30499267578125,-16344.4345703125,92.62276458740234,50.45234680175781,-41.01564407348633,45.08195495605469,-0.30630624294281006,-0.4740644097328186
1731876973435.0,0.0,0.0,-20.0,0.0,0.0,0.0,0.0,0.0,0.0,0.0,0.0,0.0,0.0,0.0,0.0,0.0,0.0,0.0,0.0,0.0,0.0,30.349184036254883,54.62715530395508,-16265.2451171875,122.14027404785156,17.639373779296875,-92.2228775024414,45.113651275634766,-0.23704709112644196,-0.20249545574188232
1731876973468.0,0.0,0.0,-20.0,0.0,0.0,0.0,0.0,0.0,0.0,0.0,0.0,0.0,0.0,0.0,0.0,0.0,0.0,0.0,0.0,0.0,0.0,-88.86668395996094,49.37366485595703,-16339.224609375,34.228267669677734,-14.853752136230469,82.80809783935547,44.89846420288086,0.22065234184265137,-0.1331486999988556
1731876973485.0,0.0,0.0,-20.0,0.0,0.0,0.0,0.0,0.0,0.0,0.0,0.0,0.0,0.0,0.0,0.0,0.0,0.0,0.0,0.0,0.0,0.0,71.84024810791016,4.864145755767822,-16490.2265625,54.91920471191406,-49.466007232666016,52.225555419921875,44.87149429321289,-0.04959392920136452,0.2515769600868225
1731876973485.0,0.0,0.0,-20.0,0.0,0.0,0.0,0.0,0.0,0.0,0.0,0.0,0.0,0.0,0.0,0.0,0.0,0.0,0.0,0.0,0.0,0.0,71.84024810791016,4.864145755767822,-16490.2265625,54.91920471191406,-49.466007232666016,52.225555419921875,44.87149429321289,-0.04959392920136452,0.2515769600868225
1731876973535.0,0.0,0.0,-20.0,0.0,0.0,0.0,0.0,0.0,0.0,0.0,0.0,0.0,0.0,0.0,0.0,0.0,0.0,0.0,0.0,0.0,0.0,-221.94302368164062,147.69920349121094,-16437.5,-25.62387466430664,9.558300971984863,-36.55796432495117,45.664493560791016,-0.2111901193857193,-0.16661874949932098
1731876973552.0,0.0,0.0,-20.0,0.0,0.0,0.0,0.0,0.0,0.0,0.0,0.0,0.0,0.0,0.0,0.0,0.0,0.0,0.0,0.0,0.0,0.0,-112.90132141113281,-178.78250122070312,-16325.1591796875,1.4603776931762695,-2.0044777393341064,19.848651885986328,45.02950668334961,0.18896101415157318,0.3605414628982544
1731876973585.0,0.0,0.0,-20.0,0.0,0.0,0.0,0.0,0.0,0.0,0.0,0.0,0.0,0.0,0.0,0.0,0.0,0.0,0.0,0.0,0.0,0.0,-47.55350112915039,121.42794799804688,-16319.859375,56.08721160888672,58.566532135009766,-20.625205993652344,45.31117248535156,-0.029387852177023888,0.3473130762577057
1731876973585.0,0.0,0.0,-20.0,0.0,0.0,0.0,0.0,0.0,0.0,0.0,0.0,0.0,0.0,0.0,0.0,0.0,0.0,0.0,0.0,0.0,0.0,-47.55350112915039,121.42794799804688,-16319.859375,56.08721160888672,58.566532135009766,-20.625205993652344,45.31117248535156,-0.029387852177023888,0.3473130762577057
1731876973635.0,0.0,0.0,-20.0,0.0,0.0,0.0,0.0,0.0,0.0,0.0,0.0,0.0,0.0,0.0,0.0,0.0,0.0,0.0,0.0,0.0,0.0,-41.2814826965332,43.96183395385742,-16502.3671875,-34.1351318359375,-68.5386962890625,27.264461517333984,45.125186920166016,-0.4234076738357544,-0.19079440832138062
1731876973652.0,0.0,0.0,-20.0,0.0,0.0,0.0,0.0,0.0,0.0,0.0,0.0,0.0,0.0,0.0,0.0,0.0,0.0,0.0,0.0,0.0,0.0,-125.98055267333984,37.80320739746094,-16229.7568359375,-3.9173941612243652,-74.05567932128906,-3.2681291103363037,45.267723083496094,-0.21839052438735962,0.16372506320476532
1731876973669.0,0.0,0.0,-20.0,0.0,0.0,0.0,0.0,0.0,0.0,0.0,0.0,0.0,0.0,0.0,0.0,0.0,0.0,0.0,0.0,0.0,0.0,-41.70943832397461,92.09637451171875,-16378.89453125,-29.512821197509766,73.42787170410156,193.629150390625,45.34346008300781,0.06510737538337708,-0.1653982400894165
1731876973685.0,0.0,0.0,-20.0,0.0,0.0,0.0,0.0,0.0,0.0,0.0,0.0,0.0,0.0,0.0,0.0,0.0,0.0,0.0,0.0,0.0,0.0,-88.98991394042969,-310.596923828125,-16620.107421875,-69.55493927001953,78.2513198852539,25.450517654418945,45.5614128112793,0.5031631588935852,0.18399213254451752
1731876973702.0,0.0,0.0,-20.0,0.0,0.0,0.0,0.0,0.0,0.0,0.0,0.0,0.0,0.0,0.0,0.0,0.0,0.0,0.0,0.0,0.0,0.0,-4.532032489776611,-25.689435958862305,-16213.2802734375,-46.649391174316406,-28.47873878479004,34.576229095458984,45.341827392578125,0.2975449562072754,-0.2883875072002411
1731876973752.0,0.0,0.0,-20.0,0.0,0.0,0.0,0.0,0.0,0.0,0.0,0.0,0.0,0.0,0.0,0.0,0.0,0.0,0.0,0.0,0.0,0.0,-24.37643814086914,85.17822265625,-16348.0302734375,-17.745201110839844,-89.32701873779297,92.09469604492188,44.74549865722656,0.0156558807939291,0.13019078969955444
1731876973769.0,0.0,0.0,-20.0,0.0,0.0,0.0,0.0,0.0,0.0,0.0,0.0,0.0,0.0,0.0,0.0,0.0,0.0,0.0,0.0,0.0,0.0,-181.83721923828125,-28.73464584350586,-16475.103515625,72.27095794677734,-25.840946197509766,-4033.95166015625,44.42188262939453,0.144184872508049,-0.038161035627126694
1731876973785.0,0.0,0.0,-20.0,0.0,0.0,0.0,0.0,0.0,0.0,0.0,0.0,0.0,0.0,0.0,0.0,0.0,0.0,0.0,0.0,0.0,0.0,69.47234344482422,83.97611999511719,-16115.4482421875,-70.83536529541016,-43.52496337890625,51.632389068603516,44.62220764160156,-0.5544748306274414,0.34054073691368103
1731876973802.0,0.0,0.0,-20.0,0.0,0.0,0.0,0.0,0.0,0.0,0.0,0.0,0.0,0.0,0.0,0.0,0.0,0.0,0.0,0.0,0.0,0.0,56.11338806152344,-49.54020690917969,-16296.46484375,-24.754562377929688,35.74993133544922,125.1773452758789,44.67851638793945,-0.3813443183898926,-0.44876182079315186
1731876973835.0,0.0,0.0,-20.0,0.0,0.0,0.0,0.0,0.0,0.0,0.0,0.0,0.0,0.0,0.0,0.0,0.0,0.0,0.0,0.0,0.0,0.0,127.5203857421875,166.31698608398438,-16547.41796875,11.863200187683105,83.72434997558594,-95.03262329101562,44.927589416503906,-0.0181710347533226,0.16300983726978302
1731876973869.0,0.0,0.0,-20.0,0.0,0.0,0.0,0.0,0.0,0.0,0.0,0.0,0.0,0.0,0.0,0.0,0.0,0.0,0.0,0.0,0.0,0.0,44.77985763549805,4.257944107055664,-16260.759765625,70.88440704345703,17.703245162963867,123.7300033569336,45.046775817871094,0.08698854595422745,-0.04746273159980774
1731876973886.0,0.0,0.0,-20.0,0.0,0.0,0.0,0.0,0.0,0.0,0.0,0.0,0.0,0.0,0.0,0.0,0.0,0.0,0.0,0.0,0.0,0.0,72.22696685791016,143.3960723876953,-16457.697265625,-4.306530475616455,75.3557357788086,0.23539553582668304,45.088478088378906,-0.061328087002038956,0.43616098165512085
1731876973902.0,0.0,0.0,-20.0,0.0,0.0,0.0,0.0,0.0,0.0,0.0,0.0,0.0,0.0,0.0,0.0,0.0,0.0,0.0,0.0,0.0,0.0,-128.61354064941406,85.19396209716797,-16286.32421875,-51.97291564941406,1.2210187911987305,-2.6917128562927246,44.842529296875,-0.2459726631641388,0.10500848293304443
1731876973936.0,0.0,0.0,-20.0,0.0,0.0,0.0,0.0,0.0,0.0,0.0,0.0,0.0,0.0,0.0,0.0,0.0,0.0,0.0,0.0,0.0,0.0,60.875343322753906,101.16861724853516,-16318.6552734375,29.40448570251465,31.727636337280273,-1.202626347541809,45.33201217651367,0.0030513834208250046,-0.164377823472023
1731876973969.0,0.0,0.0,-20.0,0.0,0.0,0.0,0.0,0.0,0.0,0.0,0.0,0.0,0.0,0.0,0.0,0.0,0.0,0.0,0.0,0.0,0.0,107.88333129882812,29.263591766357422,-16245.2099609375,-54.37592315673828,-23.613800048828125,105.16671752929688,45.219905853271484,-0.22501236200332642,0.28344812989234924
1731876973986.0,0.0,0.0,-20.0,0.0,0.0,0.0,0.0,0.0,0.0,0.0,0.0,0.0,0.0,0.0,0.0,0.0,0.0,0.0,0.0,0.0,0.0,-18.777591705322266,112.75926208496094,-16416.623046875,6.917821884155273,-92.00851440429688,-15.797452926635742,45.030540466308594,0.36283251643180847,0.2542717456817627
1731876973986.0,0.0,0.0,-20.0,0.0,0.0,0.0,0.0,0.0,0.0,0.0,0.0,0.0,0.0,0.0,0.0,0.0,0.0,0.0,0.0,0.0,0.0,-18.777591705322266,112.75926208496094,-16416.623046875,6.917821884155273,-92.00851440429688,-15.797452926635742,45.030540466308594,0.36283251643180847,0.2542717456817627
1731876974036.0,0.0,0.0,-20.0,0.0,0.0,0.0,0.0,0.0,0.0,0.0,0.0,0.0,0.0,0.0,0.0,0.0,0.0,0.0,0.0,0.0,0.0,-4.878970623016357,-32.189353942871094,-16515.83203125,39.59953308105469,1.7110061645507812,35.70759582519531,45.324073791503906,0.28363463282585144,-0.11620232462882996
1731876974052.0,0.0,0.0,-20.0,0.0,0.0,0.0,0.0,0.0,0.0,0.0,0.0,0.0,0.0,0.0,0.0,0.0,0.0,0.0,0.0,0.0,0.0,89.04042053222656,-50.50925064086914,-16489.11328125,-32.07072830200195,57.57041931152344,-56.773902893066406,45.688575744628906,0.04582061246037483,0.3275822699069977
1731876974086.0,0.0,0.0,-20.0,0.0,0.0,0.0,0.0,0.0,0.0,0.0,0.0,0.0,0.0,0.0,0.0,0.0,0.0,0.0,0.0,0.0,0.0,-64.48287200927734,-104.41151428222656,-16417.533203125,-1.4830732345581055,39.46488571166992,22.508085250854492,45.080360412597656,-0.07247262448072433,0.38969340920448303
1731876974086.0,0.0,0.0,-20.0,0.0,0.0,0.0,0.0,0.0,0.0,0.0,0.0,0.0,0.0,0.0,0.0,0.0,0.0,0.0,0.0,0.0,0.0,-64.48287200927734,-104.41151428222656,-16417.533203125,-1.4830732345581055,39.46488571166992,22.508085250854492,45.080360412597656,-0.07247262448072433,0.38969340920448303
1731876974136.0,0.0,0.0,-20.0,0.0,0.0,0.0,0.0,0.0,0.0,0.0,0.0,0.0,0.0,0.0,0.0,0.0,0.0,0.0,0.0,0.0,0.0,250.2252655029297,58.15318298339844,-16336.8896484375,14.361160278320312,52.288902282714844,-31.015214920043945,45.187931060791016,0.2152305543422699,-0.02563072368502617
1731876974153.0,0.0,0.0,-20.0,0.0,0.0,0.0,0.0,0.0,0.0,0.0,0.0,0.0,0.0,0.0,0.0,0.0,0.0,0.0,0.0,0.0,0.0,150.9158172607422,-118.87251281738281,-16492.861328125,-4.034163951873779,36.95551300048828,39.32191848754883,44.73503875732422,-0.2979617416858673,0.4225369393825531
1731876974186.0,0.0,0.0,-20.0,0.0,0.0,0.0,0.0,0.0,0.0,0.0,0.0,0.0,0.0,0.0,0.0,0.0,0.0,0.0,0.0,0.0,0.0,118.77787780761719,-9.04848861694336,-16455.373046875,-16.40765380859375,27.421842575073242,31.198341369628906,45.35055160522461,-0.5618016123771667,-0.18994617462158203
1731876974186.0,0.0,0.0,-20.0,0.0,0.0,0.0,0.0,0.0,0.0,0.0,0.0,0.0,0.0,0.0,0.0,0.0,0.0,0.0,0.0,0.0,0.0,118.77787780761719,-9.04848861694336,-16455.373046875,-16.40765380859375,27.421842575073242,31.198341369628906,45.35055160522461,-0.5618016123771667,-0.18994617462158203
1731876974236.0,0.0,0.0,-20.0,0.0,0.0,0.0,0.0,0.0,0.0,0.0,0.0,0.0,0.0,0.0,0.0,0.0,0.0,0.0,0.0,0.0,0.0,11.726232528686523,-37.591896057128906,-16305.236328125,-91.22708129882812,30.563617706298828,-181.45680236816406,44.980796813964844,-0.4614877700805664,0.2533629834651947
1731876974253.0,0.0,0.0,-20.0,0.0,0.0,0.0,0.0,0.0,0.0,0.0,0.0,0.0,0.0,0.0,0.0,0.0,0.0,0.0,0.0,0.0,0.0,-28.655834197998047,-0.4052940309047699,-16331.2177734375,-207.09634399414062,-124.59835052490234,31.054832458496094,44.77679443359375,0.49942827224731445,0.18524675071239471
1731876974269.0,0.0,0.0,-20.0,0.0,0.0,0.0,0.0,0.0,0.0,0.0,0.0,0.0,0.0,0.0,0.0,0.0,0.0,0.0,0.0,0.0,0.0,-128.34498596191406,87.17338562011719,-16512.736328125,46.93040466308594,-43.565040588378906,134.63853454589844,44.98847198486328,0.47562623023986816,0.06014835834503174
1731876974286.0,0.0,0.0,-20.0,0.0,0.0,0.0,0.0,0.0,0.0,0.0,0.0,0.0,0.0,0.0,0.0,0.0,0.0,0.0,0.0,0.0,0.0,10.745625495910645,146.9888458251953,-16202.76171875,10.99288558959961,80.3501205444336,-100.2353286743164,44.61397933959961,0.12050225585699081,0.4037134349346161
1731876974303.0,0.0,0.0,-20.0,0.0,0.0,0.0,0.0,0.0,0.0,0.0,0.0,0.0,0.0,0.0,0.0,0.0,0.0,0.0,0.0,0.0,0.0,54.19813919067383,164.4094696044922,-16432.76171875,85.47760009765625,-80.77653503417969,91.75162506103516,44.459564208984375,-0.22498497366905212,0.17707249522209167
1731876974352.0,0.0,0.0,-20.0,0.0,0.0,0.0,0.0,0.0,0.0,0.0,0.0,0.0,0.0,0.0,0.0,0.0,0.0,0.0,0.0,0.0,0.0,-204.821044921875,-92.36939239501953,-16738.857421875,46.35367202758789,-53.26045608520508,22.138051986694336,46.040611267089844,-0.32403942942619324,0.4621811807155609
1731876974369.0,0.0,0.0,-20.0,0.0,0.0,0.0,0.0,0.0,0.0,0.0,0.0,0.0,0.0,0.0,0.0,0.0,0.0,0.0,0.0,0.0,0.0,14.721797943115234,94.4105453491211,-16418.5,-10.363635063171387,41.44602966308594,-4.919741153717041,44.80821228027344,0.053214747458696365,-0.0637984499335289
1731876974386.0,0.0,0.0,-20.0,0.0,0.0,0.0,0.0,0.0,0.0,0.0,0.0,0.0,0.0,0.0,0.0,0.0,0.0,0.0,0.0,0.0,0.0,89.06553649902344,-73.98684692382812,-16377.1552734375,7.599585056304932,-64.31385040283203,68.44635772705078,45.254791259765625,0.07220976054668427,0.05164595693349838
1731876974403.0,0.0,0.0,-20.0,0.0,0.0,0.0,0.0,0.0,0.0,0.0,0.0,0.0,0.0,0.0,0.0,0.0,0.0,0.0,0.0,0.0,0.0,28.37932014465332,170.9128875732422,-16244.986328125,28.060049057006836,6.9721999168396,-44.07322692871094,45.3591194152832,0.18041165173053741,-0.3001883327960968
1731876974436.0,0.0,0.0,-20.0,0.0,0.0,0.0,0.0,0.0,0.0,0.0,0.0,0.0,0.0,0.0,0.0,0.0,0.0,0.0,0.0,-0.02339305356144905,0.0,-147.58782958984375,-108.41380310058594,-16318.501953125,83.76747131347656,-231.29881286621094,48.894935607910156,44.97700500488281,-0.17876775562763214,-0.05657217651605606
1731876974470.0,0.0,0.0,-20.0,0.0,0.0,0.0,0.0,0.0,0.0,0.0,0.0,0.0,0.0,0.0,0.0,0.0,-0.05359478294849396,0.0,0.0,-0.023353513330221176,0.0,19.34613609313965,28.27622413635254,-16303.4365234375,21.38934898376465,-118.15766143798828,-42.2489128112793,44.79328536987305,-0.6424501538276672,0.13726478815078735
1731876974486.0,0.0,0.0,-20.0,0.0,0.0,0.0,0.0,0.0,0.0,0.0,0.0,0.0,0.0,0.0,0.0,0.0,-0.08035594969987869,0.0,0.0,-0.014838924631476402,0.0,-98.30049896240234,-5.386386871337891,-16416.244140625,12.342009544372559,-22.645475387573242,-100.93306732177734,44.998695373535156,0.4371289312839508,0.23131051659584045
1731876974486.0,0.0,0.0,-20.0,0.0,0.0,0.0,0.0,0.0,0.0,0.0,0.0,0.0,0.0,0.0,0.0,0.0,-0.08035594969987869,0.0,0.0,-0.014838924631476402,0.0,-98.30049896240234,-5.386386871337891,-16416.244140625,12.342009544372559,-22.645475387573242,-100.93306732177734,44.998695373535156,0.4371289312839508,0.23131051659584045
1731876974536.0,0.0,0.0,-20.0,0.0,0.0,0.0,0.0,0.0,0.0,0.0,0.0,0.0,0.0,0.0,0.0,0.0,-0.09491938352584839,0.0,0.0,0.0105619290843606,0.0,79.26646423339844,-70.05817413330078,-16469.640625,20.400630950927734,66.2767105102539,-32.1822395324707,44.66962814331055,-0.12810848653316498,-0.2631627917289734
1731876974553.0,0.0,0.0,-20.0,0.0,0.0,0.0,0.0,0.0,0.0,0.0,0.0,0.0,0.0,0.0,0.0,0.0,-0.08281628787517548,0.0,0.0,0.01895822584629059,0.0,216.3082275390625,-37.01445388793945,-16271.05078125,58.96307373046875,173.4794464111328,-63.61147689819336,45.12187957763672,0.500539243221283,-0.19933652877807617
1731876974587.0,0.0,0.0,-20.0,0.0,0.0,0.0,0.0,0.0,0.0,0.0,0.0,0.0,0.0,0.0,0.0,0.0,-0.03942803293466568,0.0,0.0,0.03559550642967224,0.0,0.47515392303466797,29.755393981933594,-16487.291015625,-44.68567657470703,245.70562744140625,37.68980026245117,45.45360565185547,-0.1525672823190689,0.1319202333688736
1731876974587.0,0.0,0.0,-20.0,0.0,0.0,0.0,0.0,0.0,0.0,0.0,0.0,0.0,0.0,0.0,0.0,0.0,-0.03942803293466568,0.0,0.0,0.03559550642967224,0.0,0.47515392303466797,29.755393981933594,-16487.291015625,-44.68567657470703,245.70562744140625,37.68980026245117,45.45360565185547,-0.1525672823190689,0.1319202333688736
1731876974637.0,0.0,0.0,-20.0,0.0,0.0,0.0,0.0,0.0,0.0,0.0,0.0,0.0,0.0,0.0,0.0,0.0,0.05157470703125,0.0,0.0,0.06835300475358963,0.0,-63.83235168457031,58.30312728881836,-16406.484375,-13.413732528686523,404.1256408691406,29.67517852783203,45.14698028564453,-0.08223645389080048,0.3795875608921051
1731876974653.0,0.0,0.0,-20.0,0.0,0.0,0.0,0.0,0.0,0.0,0.0,0.0,0.0,0.0,0.0,0.0,0.0,0.129913330078125,0.0,0.0,0.07632778584957123,0.0,102.66423034667969,-43.17755126953125,-16301.0322265625,-11.106317520141602,652.5206909179688,-57.628150939941406,44.95807647705078,-0.26757633686065674,0.5554448366165161
1731876974670.0,0.0,0.0,-20.0,0.0,0.0,0.0,0.0,0.0,0.0,0.0,0.0,0.0,0.0,0.0,0.0,0.0,0.217376708984375,0.0,0.0,0.09241589158773422,0.0,-1.2260017395019531,59.56235885620117,-16416.591796875,126.67556762695312,805.4692993164062,26.240135192871094,45.25133514404297,0.31186944246292114,0.7586119174957275
1731876974686.0,0.0,0.0,-20.0,0.0,0.0,0.0,0.0,0.0,0.0,0.0,0.0,0.0,0.0,0.0,0.0,0.0,0.323272705078125,0.0,0.0,0.10018043220043182,0.0,-1.7475509643554688,-117.74403381347656,-16396.875,-115.55269622802734,637.16845703125,-55.01155090332031,45.22676467895508,-0.12823374569416046,0.7203246355056763
1731876974703.0,0.0,0.0,-20.0,0.0,0.0,0.0,0.0,0.0,0.0,0.0,0.0,0.0,0.0,0.0,0.0,0.0,0.438079833984375,0.0,0.0,0.10779554396867752,0.0,143.53395080566406,-66.45024871826172,-16396.068359375,-31.762042999267578,704.458740234375,-69.52159118652344,44.884761810302734,0.49146145582199097,-0.05700168013572693
1731876974753.0,0.0,0.0,-20.0,0.0,0.0,0.0,0.0,0.0,0.0,0.0,0.0,0.0,0.0,0.0,0.0,0.0,0.729949951171875,0.0,0.0,0.14601638913154602,0.0,241.758544921875,0.3971062898635864,-16489.3984375,-7.958305835723877,1087.5821533203125,68.87025451660156,44.92958450317383,-0.4703483283519745,0.1532517969608307
1731876974769.0,0.0,0.0,-20.0,0.0,0.0,0.0,0.0,0.0,0.0,0.0,0.0,0.0,0.0,0.0,0.0,0.0,0.897247314453125,0.0,0.0,0.15307016670703888,0.0,255.0392303466797,44.57429504394531,-16350.9951171875,-17.86910057067871,1094.5433349609375,-21.69125747680664,45.56593322753906,-0.12506037950515747,0.6981543898582458
1731876974786.0,0.0,0.0,-20.0,0.0,0.0,0.0,0.0,0.0,0.0,0.0,0.0,0.0,0.0,0.0,0.0,0.0,1.072662353515625,0.0,0.0,0.1520748883485794,0.0,215.16537475585938,67.10087585449219,-16322.654296875,-115.84329223632812,1156.681884765625,-11.819425582885742,45.46829605102539,-0.1724795699119568,0.6604549884796143
1731876974803.0,0.0,0.0,-20.0,0.0,0.0,0.0,0.0,0.0,0.0,0.0,0.0,0.0,0.0,0.0,0.0,0.0,1.246917724609375,0.0,0.0,0.15102992951869965,0.0,411.5052795410156,121.45649719238281,-16420.013671875,10.108611106872559,1196.042236328125,-4.512213706970215,45.03046798706055,-0.05176319554448128,1.3006618022918701
1731876974836.0,0.0,0.0,-20.0,0.0,0.0,0.0,0.0,0.0,0.0,0.0,0.0,0.0,0.0,0.0,0.0,0.0,1.41998291015625,0.0,0.0,0.14881357550621033,0.0,441.8983459472656,-125.00051879882812,-16369.5771484375,52.3863639831543,1318.0218505859375,-115.7279052734375,45.15968322753906,0.4467449486255646,1.4169139862060547
1731876974853.0,0.0,0.0,-20.0,0.0,0.0,0.0,0.0,0.0,0.0,0.0,0.0,0.0,0.0,0.0,0.0,0.0,1.59051513671875,0.0,0.0,0.14766891300678253,0.0,319.92218017578125,-49.414642333984375,-16383.671875,-59.3040771484375,1021.4298095703125,53.935062408447266,45.068626403808594,0.4552534818649292,1.035393238067627
1731876974886.0,0.0,0.0,-20.0,0.0,0.0,0.0,0.0,0.0,0.0,0.0,0.0,0.0,0.0,0.0,0.0,0.0,1.927581787109375,0.0,0.0,0.1451684832572937,0.0,431.71044921875,-226.87002563476562,-16274.3603515625,-134.74685668945312,920.3753662109375,32.673614501953125,44.82286071777344,-0.19852687418460846,1.5855509042739868
1731876974886.0,0.0,0.0,-20.0,0.0,0.0,0.0,0.0,0.0,0.0,0.0,0.0,0.0,0.0,0.0,0.0,0.0,1.927581787109375,0.0,0.0,0.1451684832572937,0.0,431.71044921875,-226.87002563476562,-16274.3603515625,-134.74685668945312,920.3753662109375,32.673614501953125,44.82286071777344,-0.19852687418460846,1.5855509042739868
1731876974903.0,0.0,0.0,-20.0,0.0,0.0,0.0,0.0,0.0,0.0,0.0,0.0,0.0,0.0,0.0,0.0,0.0,2.09393310546875,0.0,0.0,0.143893763422966,0.0,583.0563354492188,65.36467742919922,-16303.1328125,-41.776519775390625,1041.19677734375,-3.6938998699188232,45.1629638671875,0.6822609305381775,1.1357954740524292
1731876974953.0,0.0,0.0,-20.0,0.0,0.0,0.0,0.0,0.0,0.0,0.0,0.0,0.0,0.0,0.0,0.0,0.0,2.420623779296875,0.0,0.0,0.13979478180408478,0.0,723.0677490234375,-141.09072875976562,-16364.00390625,54.91637420654297,1146.9007568359375,-34.09975814819336,44.35868453979492,-0.018156029284000397,2.3232104778289795
1731876974969.0,0.0,0.0,-20.0,0.0,0.0,0.0,0.0,0.0,0.0,0.0,0.0,0.0,0.0,0.0,0.0,0.0,2.580810546875,0.0,0.0,0.13836480677127838,0.0,672.3797607421875,105.38387298583984,-16500.33984375,16.413969039916992,1046.15234375,97.01555633544922,44.94617462158203,0.06614430993795395,2.136310577392578
1731876974986.0,0.0,0.0,-20.0,0.0,0.0,0.0,0.0,0.0,0.0,0.0,0.0,0.0,0.0,0.0,0.0,0.0,2.7393798828125,0.0,0.0,0.13685321807861328,0.0,817.768798828125,51.83174133300781,-16525.642578125,5.0808610916137695,986.6173095703125,0.8002004623413086,45.020198822021484,0.1889355629682541,2.4793736934661865
1731876975003.0,0.0,0.0,-20.0,0.0,0.0,0.0,0.0,0.0,0.0,0.0,0.0,0.0,0.0,0.0,0.0,0.0,2.89617919921875,0.0,0.0,0.13535869121551514,0.0,992.1377563476562,99.95087432861328,-16297.8359375,-61.11577224731445,875.1754150390625,71.69793701171875,45.03703689575195,0.484885036945343,2.5792038440704346
1731876975036.0,0.0,0.0,-20.0,0.0,0.0,0.0,0.0,0.0,0.0,0.0,0.0,0.0,0.0,0.0,0.0,0.0,3.051300048828125,0.0,0.0,0.13214309513568878,0.0,955.4794311523438,97.3181381225586,-16362.6748046875,-29.2430419921875,734.357177734375,35.68879318237305,45.19329833984375,0.23120500147342682,2.738110065460205
1731876975070.0,0.0,0.0,-20.0,0.0,0.0,0.0,0.0,0.0,0.0,0.0,0.0,0.0,0.0,0.0,0.0,0.0,3.35223388671875,0.0,0.0,0.12880007922649384,0.0,957.9835205078125,53.93013000488281,-16514.4140625,-9.13455867767334,979.0308227539062,14.58207893371582,44.81175994873047,-0.21851347386837006,2.5168232917785645
1731876975087.0,0.0,0.0,-20.0,0.0,0.0,0.0,0.0,0.0,0.0,0.0,0.0,0.0,0.0,0.0,0.0,0.0,3.499847412109375,0.0,0.0,0.12709876894950867,0.0,988.0525512695312,-57.77876663208008,-16551.96875,-149.04940795898438,939.0110473632812,-19.390878677368164,45.27444839477539,-0.11123921722173691,2.7027363777160645
1731876975103.0,0.0,0.0,-20.0,0.0,0.0,0.0,0.0,0.0,0.0,0.0,0.0,0.0,0.0,0.0,0.0,0.0,3.645477294921875,0.0,0.0,0.12536245584487915,0.0,1086.4774169921875,65.81065368652344,-16222.19140625,47.283267974853516,793.925048828125,16.510602951049805,44.991539001464844,-0.15019750595092773,2.5012834072113037
1731876975137.0,0.0,0.0,-20.0,0.0,0.0,0.0,0.0,0.0,0.0,0.0,0.0,0.0,0.0,0.0,0.0,0.0,3.78912353515625,0.0,0.0,0.12177325040102005,0.0,1002.0333862304688,17.120126724243164,-16208.0078125,11.123909950256348,989.959228515625,28.496000289916992,45.570289611816406,-0.22477544844150543,2.970691442489624
1731876975170.0,0.0,0.0,-20.0,0.0,0.0,0.0,0.0,0.0,0.0,0.0,0.0,0.0,0.0,0.0,0.0,0.0,4.066070556640625,0.0,0.0,0.11803494393825531,0.0,935.6581420898438,62.606021881103516,-16351.94921875,42.29495620727539,914.8626708984375,-141.4378204345703,45.093482971191406,0.20262153446674347,3.184623956680298
1731876975187.0,0.0,0.0,-20.0,0.0,0.0,0.0,0.0,0.0,0.0,0.0,0.0,0.0,0.0,0.0,0.0,0.0,4.201324462890625,0.0,0.0,0.1161160096526146,0.0,951.7066650390625,-29.041236877441406,-16315.0498046875,15.839917182922363,1012.3580932617188,-66.9835433959961,44.92110824584961,0.3368809223175049,3.2178359031677246
1731876975187.0,0.0,0.0,-20.0,0.0,0.0,0.0,0.0,0.0,0.0,0.0,0.0,0.0,0.0,0.0,0.0,0.0,4.201324462890625,0.0,0.0,0.1161160096526146,0.0,951.7066650390625,-29.041236877441406,-16315.0498046875,15.839917182922363,1012.3580932617188,-66.9835433959961,44.92110824584961,0.3368809223175049,3.2178359031677246
1731876975237.0,0.0,0.0,-20.0,0.0,0.0,0.0,0.0,0.0,0.0,0.0,0.0,0.0,0.0,0.0,0.0,0.0,4.465240478515625,0.0,0.0,0.11018136143684387,0.0,1160.4100341796875,-6.11907434463501,-16501.76171875,-64.65117645263672,750.9887084960938,159.37998962402344,44.611942291259766,-0.13576991856098175,3.5419209003448486
1731876975254.0,0.0,0.0,-20.0,0.0,0.0,0.0,0.0,0.0,0.0,0.0,0.0,0.0,0.0,0.0,0.0,0.0,4.59149169921875,0.0,0.0,0.10812102258205414,0.0,1329.2252197265625,-214.7572784423828,-16322.25,24.821020126342773,832.294921875,-3.4045159816741943,44.875244140625,-0.07404995709657669,3.191748857498169
1731876975287.0,0.0,0.0,-20.0,0.0,0.0,0.0,0.0,0.0,0.0,0.0,0.0,0.0,0.0,0.0,0.0,0.0,4.836944580078125,0.0,0.0,0.10395529866218567,0.0,1349.7198486328125,77.81053161621094,-16308.509765625,26.244945526123047,809.0970458984375,91.544921875,44.80319595336914,-0.31114310026168823,4.207985877990723
1731876975287.0,0.0,0.0,-20.0,0.0,0.0,0.0,0.0,0.0,0.0,0.0,0.0,0.0,0.0,0.0,0.0,0.0,4.836944580078125,0.0,0.0,0.10395529866218567,0.0,1349.7198486328125,77.81053161621094,-16308.509765625,26.244945526123047,809.0970458984375,91.544921875,44.80319595336914,-0.31114310026168823,4.207985877990723
1731876975337.0,0.0,0.0,-20.0,0.0,0.0,0.0,0.0,0.0,0.0,0.0,0.0,0.0,0.0,0.0,0.0,0.0,5.07275390625,0.0,0.0,0.0975319892168045,0.0,1376.9271240234375,40.32271194458008,-16240.8466796875,-56.97513198852539,706.03515625,-26.706829071044922,45.30894470214844,0.24312597513198853,3.6873810291290283
1731876975354.0,0.0,0.0,-20.0,0.0,0.0,0.0,0.0,0.0,0.0,0.0,0.0,0.0,0.0,0.0,0.0,0.0,5.184539794921875,0.0,0.0,0.0953148901462555,0.0,1441.1002197265625,-82.01732635498047,-16322.7333984375,-36.039649963378906,677.2726440429688,46.348968505859375,44.52126693725586,0.08074870705604553,4.1887664794921875
1731876975371.0,0.0,0.0,-20.0,0.0,0.0,0.0,0.0,0.0,0.0,0.0,0.0,0.0,0.0,0.0,0.0,0.0,5.29376220703125,0.0,0.0,0.0930381789803505,0.0,1605.3922119140625,199.47900390625,-16247.2021484375,53.632904052734375,739.871826171875,-23.67893409729004,44.80500793457031,0.14958199858665466,4.431021690368652
1731876975387.0,0.0,0.0,-20.0,0.0,0.0,0.0,0.0,0.0,0.0,0.0,0.0,0.0,0.0,0.0,0.0,0.0,5.400360107421875,0.0,0.0,0.09081800282001495,0.0,1657.89599609375,242.19683837890625,-16262.6015625,-66.41586303710938,536.845703125,18.51288414001465,44.75773620605469,-0.19441953301429749,4.507888317108154
1731876975403.0,0.0,0.0,-20.0,0.0,0.0,0.0,0.0,0.0,0.0,0.0,0.0,0.0,0.0,0.0,0.0,0.0,5.504425048828125,0.0,0.0,0.0885566845536232,0.0,1610.5081787109375,20.074743270874023,-16243.3896484375,-5.828921318054199,524.1575927734375,-17.97276496887207,44.84310531616211,0.08620284497737885,4.304494380950928
1731876975453.0,0.0,0.0,-20.0,0.0,0.0,0.0,0.0,0.0,0.0,0.0,0.0,0.0,0.0,0.0,0.0,0.0,5.702056884765625,0.0,0.0,0.08154414594173431,0.0,1737.081298828125,-16.524507522583008,-16385.921875,-49.69578170776367,788.087646484375,49.017433166503906,44.083404541015625,-0.0537838488817215,4.194342613220215
1731876975470.0,0.0,0.0,-20.0,0.0,0.0,0.0,0.0,0.0,0.0,0.0,0.0,0.0,0.0,0.0,0.0,0.0,5.795501708984375,0.0,0.0,0.07915452867746353,0.0,1578.9119873046875,-86.52815246582031,-16308.279296875,20.647783279418945,480.27178955078125,-52.94815444946289,44.4243049621582,-0.291849285364151,4.409387588500977
1731876975487.0,0.0,0.0,-20.0,0.0,0.0,0.0,0.0,0.0,0.0,0.0,0.0,0.0,0.0,0.0,0.0,0.0,5.88623046875,0.0,0.0,0.07674277573823929,0.0,1687.884033203125,101.98511505126953,-16250.166015625,-2.9916038513183594,556.4661254882812,15.622962951660156,44.79247283935547,-0.24036364257335663,4.5600714683532715
1731876975503.0,0.0,0.0,-20.0,0.0,0.0,0.0,0.0,0.0,0.0,0.0,0.0,0.0,0.0,0.0,0.0,0.0,5.974151611328125,0.0,0.0,0.07434523105621338,0.0,1715.8177490234375,55.776466369628906,-16315.587890625,-60.0692138671875,511.79296875,-10.278114318847656,44.71150207519531,-0.2780686318874359,4.690406799316406
1731876975537.0,0.0,0.0,-20.0,0.0,0.0,0.0,0.0,0.0,0.0,0.0,0.0,0.0,0.0,0.0,0.0,0.0,6.059356689453125,0.0,0.0,0.0693814605474472,0.0,1831.69677734375,49.45094680786133,-16230.8447265625,19.815677642822266,430.99444580078125,127.86724853515625,44.44585037231445,0.36548948287963867,4.504364967346191
1731876975570.0,0.0,0.0,-20.0,0.0,0.0,0.0,0.0,0.0,0.0,0.0,0.0,0.0,0.0,0.0,0.0,0.0,6.21551513671875,0.0,0.0,0.06446775794029236,0.0,1719.8255615234375,100.6880111694336,-16199.8876953125,54.2826042175293,524.4198608398438,6.650065898895264,44.790245056152344,-0.1957084685564041,4.855784893035889
1731876975587.0,0.0,0.0,-20.0,0.0,0.0,0.0,0.0,0.0,0.0,0.0,0.0,0.0,0.0,0.0,0.0,0.0,6.289398193359375,0.0,0.0,0.06190113350749016,0.0,1605.6343994140625,61.73488998413086,-16369.1630859375,10.497730255126953,395.683349609375,-117.45814514160156,44.69684600830078,-0.3057355284690857,4.579439640045166
1731876975587.0,0.0,0.0,-20.0,0.0,0.0,0.0,0.0,0.0,0.0,0.0,0.0,0.0,0.0,0.0,0.0,0.0,6.289398193359375,0.0,0.0,0.06190113350749016,0.0,1605.6343994140625,61.73488998413086,-16369.1630859375,10.497730255126953,395.683349609375,-117.45814514160156,44.69684600830078,-0.3057355284690857,4.579439640045166
1731876975637.0,0.0,0.0,-20.0,0.0,0.0,0.0,0.0,0.0,0.0,0.0,0.0,0.0,0.0,0.0,0.0,0.0,6.428314208984375,0.0,0.0,0.054210640490055084,0.0,1777.66357421875,20.614316940307617,-16279.1171875,-106.14129638671875,306.7999572753906,-84.95954895019531,45.36124038696289,0.09799792617559433,5.138289451599121
1731876975654.0,0.0,0.0,-20.0,0.0,0.0,0.0,0.0,0.0,0.0,0.0,0.0,0.0,0.0,0.0,0.0,0.0,6.490447998046875,0.0,0.0,0.05161585658788681,0.0,1842.7115478515625,-95.22137451171875,-16068.001953125,-4064.255126953125,361.9845886230469,-39.53990936279297,44.84436798095703,-0.18318264186382294,4.466764450073242
1731876975687.0,0.0,0.0,-20.0,0.0,0.0,0.0,0.0,0.0,0.0,0.0,0.0,0.0,0.0,0.0,0.0,0.0,6.60577392578125,0.0,0.0,0.04640291631221771,0.0,1803.7535400390625,27.220417022705078,-16276.5712890625,1.1060783863067627,237.05807495117188,-39.031124114990234,45.051475524902344,-0.13011491298675537,4.552285194396973
1731876975687.0,0.0,0.0,-20.0,0.0,0.0,0.0,0.0,0.0,0.0,0.0,0.0,0.0,0.0,0.0,0.0,0.0,6.60577392578125,0.0,0.0,0.04640291631221771,0.0,1803.7535400390625,27.220417022705078,-16276.5712890625,1.1060783863067627,237.05807495117188,-39.031124114990234,45.051475524902344,-0.13011491298675537,4.552285194396973
1731876975737.0,0.0,0.0,-20.0,0.0,0.0,0.0,0.0,0.0,0.0,0.0,0.0,0.0,0.0,0.0,0.0,0.0,6.7091064453125,0.0,0.0,0.038440071046352386,0.0,1970.3214111328125,-35.31306076049805,-16268.1767578125,-4.778483867645264,327.4519958496094,129.00637817382812,44.31905746459961,-0.022939715534448624,4.851708889007568
1731876975754.0,0.0,0.0,-20.0,0.0,0.0,0.0,0.0,0.0,0.0,0.0,0.0,0.0,0.0,0.0,0.0,0.0,6.753143310546875,0.0,0.0,0.03578922525048256,0.0,1782.711669921875,-90.59280395507812,-16084.70703125,-32.30607604980469,154.0465087890625,64.56777954101562,44.96202087402344,-0.1326577514410019,4.962775230407715
1731876975771.0,0.0,0.0,-20.0,0.0,0.0,0.0,0.0,0.0,0.0,0.0,0.0,0.0,0.0,0.0,0.0,0.0,6.794158935546875,0.0,0.0,0.033108919858932495,0.0,2025.4830322265625,-46.277523040771484,-16114.4296875,156.56248474121094,345.96063232421875,-77.69071197509766,45.06696319580078,-0.47709396481513977,5.506535053253174
1731876975804.0,0.0,0.0,-20.0,0.0,0.0,0.0,0.0,0.0,0.0,0.0,0.0,0.0,0.0,0.0,0.0,0.0,6.866973876953125,0.0,0.0,0.027701551094651222,0.0,1933.6356201171875,-73.71809387207031,-16197.24609375,-15.223501205444336,241.72930908203125,-59.98290252685547,44.47182846069336,-0.2551276385784149,5.51364278793335
1731876975804.0,0.0,0.0,-20.0,0.0,0.0,0.0,0.0,0.0,0.0,0.0,0.0,0.0,0.0,0.0,0.0,0.0,6.866973876953125,0.0,0.0,0.027701551094651222,0.0,1933.6356201171875,-73.71809387207031,-16197.24609375,-15.223501205444336,241.72930908203125,-59.98290252685547,44.47182846069336,-0.2551276385784149,5.51364278793335
1731876975854.0,0.0,0.0,-20.0,0.0,0.0,0.0,0.0,0.0,0.0,0.0,0.0,0.0,0.0,0.0,0.0,0.0,6.9273681640625,0.0,0.0,0.019643161445856094,0.0,2013.109130859375,-6.393787384033203,-16337.837890625,45.08685302734375,272.95135498046875,35.50679016113281,44.79745864868164,0.3114786148071289,5.664346694946289
1731876975870.0,0.0,0.0,-20.0,0.0,0.0,0.0,0.0,0.0,0.0,0.0,0.0,0.0,0.0,0.0,0.0,0.0,6.94989013671875,0.0,0.0,0.016978446394205093,0.0,1989.88623046875,-57.75609588623047,-16132.330078125,2.3210220336914062,13.871702194213867,61.42063522338867,44.66975021362305,0.37213414907455444,5.0365095138549805
1731876975887.0,0.0,0.0,-20.0,0.0,0.0,0.0,0.0,0.0,0.0,0.0,0.0,0.0,0.0,0.0,0.0,0.0,6.969329833984375,0.0,0.0,0.014229447580873966,0.0,2057.4892578125,24.454286575317383,-16181.845703125,-64.68647766113281,29.616975784301758,10.018628120422363,45.052425384521484,-0.5021501779556274,5.5056328773498535
1731876975904.0,0.0,0.0,-20.0,0.0,0.0,0.0,0.0,0.0,0.0,0.0,0.0,0.0,0.0,0.0,0.0,0.0,6.985626220703125,0.0,0.0,0.011516335420310497,0.0,1999.943115234375,68.65523529052734,-16436.595703125,61.839515686035156,118.42196655273438,-11.570311546325684,44.782073974609375,-0.07951007783412933,5.509934902191162
1731876975937.0,0.0,0.0,-20.0,0.0,0.0,0.0,0.0,0.0,0.0,0.0,0.0,0.0,0.0,0.0,0.0,0.0,6.99884033203125,0.0,0.0,0.0060213422402739525,0.0,1997.0692138671875,62.481224060058594,-16327.2705078125,13.378824234008789,-11.10325813293457,-73.50698852539062,44.65743637084961,-0.11722432076931,5.896936893463135
1731876975970.0,0.0,0.0,-20.0,0.0,0.0,0.0,0.0,0.0,0.0,0.0,0.0,0.0,0.0,0.0,0.0,0.0,7.009490966796875,0.0,0.0,0.0005996100371703506,0.0,2036.672607421875,5.0896806716918945,-16293.12890625,21.313692092895508,65.27661895751953,-61.951751708984375,44.54582977294922,-0.18130941689014435,6.107271194458008
1731876975987.0,0.0,0.0,-20.0,0.0,0.0,0.0,0.0,0.0,0.0,0.0,0.0,0.0,0.0,0.0,0.0,0.0,7.01019287109375,0.0,0.0,-0.0021618972532451153,0.0,2020.540771484375,-54.98912048339844,-16304.041015625,-9.864583015441895,-102.54178619384766,85.1227798461914,44.2774772644043,0.07093856483697891,5.322842121124268
1731876976004.0,0.0,0.0,-20.0,0.0,0.0,0.0,0.0,0.0,0.0,0.0,0.0,0.0,0.0,0.0,0.0,0.0,7.007720947265625,0.0,0.0,-0.004902788903564215,0.0,1953.50634765625,-24.97096824645996,-16066.5810546875,111.64363861083984,-117.37942504882812,-95.73746490478516,44.498104095458984,0.021577879786491394,5.374468803405762
1731876976037.0,0.0,0.0,-20.0,0.0,0.0,0.0,0.0,0.0,0.0,0.0,0.0,0.0,0.0,0.0,0.0,0.0,7.0020751953125,0.0,0.0,-0.010359720326960087,0.0,2009.5755615234375,192.96893310546875,-16251.0908203125,25.937931060791016,-65.97515869140625,40.43165588378906,44.757442474365234,0.27783188223838806,5.766690254211426
1731876976071.0,0.0,0.0,-20.0,0.0,0.0,0.0,0.0,0.0,0.0,0.0,0.0,0.0,0.0,0.0,0.0,0.0,6.975250244140625,0.0,0.0,-0.01580514758825302,0.0,2045.921142578125,-8.004007339477539,-16256.1767578125,48.920326232910156,31.261978149414062,-37.90975570678711,44.43890380859375,-0.11584890633821487,5.377824306488037
1731876976087.0,0.0,0.0,-20.0,0.0,0.0,0.0,0.0,0.0,0.0,0.0,0.0,0.0,0.0,0.0,0.0,0.0,6.957122802734375,0.0,0.0,-0.018531598150730133,0.0,1966.7415771484375,151.06004333496094,-16267.7080078125,51.9298210144043,-152.0461883544922,-73.25849914550781,44.60344696044922,0.24563255906105042,5.047135353088379
1731876976087.0,0.0,0.0,-20.0,0.0,0.0,0.0,0.0,0.0,0.0,0.0,0.0,0.0,0.0,0.0,0.0,0.0,6.957122802734375,0.0,0.0,-0.018531598150730133,0.0,1966.7415771484375,151.06004333496094,-16267.7080078125,51.9298210144043,-152.0461883544922,-73.25849914550781,44.60344696044922,0.24563255906105042,5.047135353088379
1731876976137.0,0.0,0.0,-20.0,0.0,0.0,0.0,0.0,0.0,0.0,0.0,0.0,0.0,0.0,0.0,0.0,0.0,6.911529541015625,0.0,0.0,-0.026676813140511513,0.0,2193.304443359375,91.2468490600586,-16476.18359375,6.772939682006836,-251.82691955566406,-16.400606155395508,44.42387008666992,-0.13992159068584442,5.817544937133789
1731876976154.0,0.0,0.0,-20.0,0.0,0.0,0.0,0.0,0.0,0.0,0.0,0.0,0.0,0.0,0.0,0.0,0.0,6.880950927734375,0.0,0.0,-0.029358286410570145,0.0,1978.2327880859375,-72.97299194335938,-16359.48046875,51.34945297241211,-185.94615173339844,15.901021957397461,44.5230598449707,-0.25215938687324524,5.430591583251953
1731876976187.0,0.0,0.0,-20.0,0.0,0.0,0.0,0.0,0.0,0.0,0.0,0.0,0.0,0.0,0.0,0.0,0.0,6.810638427734375,0.0,0.0,-0.034735336899757385,0.0,1968.6556396484375,-17.48847007751465,-16202.3125,6.346238613128662,-150.92535400390625,4026.62451171875,45.44240188598633,0.09352711588144302,5.214020729064941
1731876976187.0,0.0,0.0,-20.0,0.0,0.0,0.0,0.0,0.0,0.0,0.0,0.0,0.0,0.0,0.0,0.0,0.0,6.810638427734375,0.0,0.0,-0.034735336899757385,0.0,1968.6556396484375,-17.48847007751465,-16202.3125,6.346238613128662,-150.92535400390625,4026.62451171875,45.44240188598633,0.09352711588144302,5.214020729064941
1731876976204.0,0.0,0.0,-20.0,0.0,0.0,0.0,0.0,0.0,0.0,0.0,0.0,0.0,0.0,0.0,0.0,0.0,6.770843505859375,0.0,0.0,-0.037370696663856506,0.0,1779.1318359375,95.80316925048828,-16284.4990234375,-112.07963562011719,-315.392578125,-77.87935638427734,44.806095123291016,-0.02844756282866001,5.33030891418457
1731876976254.0,0.0,0.0,-20.0,0.0,0.0,0.0,0.0,0.0,0.0,0.0,0.0,0.0,0.0,0.0,0.0,0.0,6.679107666015625,0.0,0.0,-0.04530920460820198,0.0,1801.469970703125,49.55067825317383,-16166.751953125,-50.92625427246094,-277.99072265625,-10.329071044921875,45.08432388305664,0.3981866240501404,5.569469928741455
1731876976271.0,0.0,0.0,-20.0,0.0,0.0,0.0,0.0,0.0,0.0,0.0,0.0,0.0,0.0,0.0,0.0,0.0,6.627197265625,0.0,0.0,-0.04795664921402931,0.0,1934.813720703125,-207.45010375976562,-16357.14453125,82.02864837646484,-486.30035400390625,12.962911605834961,44.88129806518555,-0.30890724062919617,5.515259742736816
1731876976287.0,0.0,0.0,-20.0,0.0,0.0,0.0,0.0,0.0,0.0,0.0,0.0,0.0,0.0,0.0,0.0,0.0,6.572235107421875,0.0,0.0,-0.05053337663412094,0.0,1992.4156494140625,-169.24307250976562,-16251.0166015625,-118.38550567626953,-387.19866943359375,54.32321548461914,44.68593978881836,0.2481558620929718,4.922615051269531
1731876976304.0,0.0,0.0,-20.0,0.0,0.0,0.0,0.0,0.0,0.0,0.0,0.0,0.0,0.0,0.0,0.0,0.0,6.51434326171875,0.0,0.0,-0.053134240210056305,0.0,1938.864501953125,36.537803649902344,-16584.771484375,4.501560211181641,-371.15435791015625,67.280029296875,44.62425231933594,0.031758155673742294,5.285547256469727
1731876976354.0,0.0,0.0,-20.0,0.0,0.0,0.0,0.0,0.0,0.0,0.0,0.0,0.0,0.0,0.0,0.0,0.0,6.386688232421875,0.0,0.0,-0.060789044946432114,0.0,1772.42724609375,-230.42298889160156,-16201.4033203125,61.09710693359375,-362.72894287109375,9.615464210510254,44.53948974609375,0.12306185066699982,4.685017108917236
1731876976371.0,0.0,0.0,-20.0,0.0,0.0,0.0,0.0,0.0,0.0,0.0,0.0,0.0,0.0,0.0,0.0,0.0,6.3170166015625,0.0,0.0,-0.06334498524665833,0.0,1758.07275390625,-84.50119018554688,-16201.8505859375,-21.518051147460938,-436.8544006347656,60.72066116333008,45.426578521728516,-0.37262842059135437,4.712069988250732
1731876976404.0,0.0,0.0,-20.0,0.0,0.0,0.0,0.0,0.0,0.0,0.0,0.0,0.0,0.0,0.0,0.0,0.0,6.168975830078125,0.0,0.0,-0.06836584955453873,0.0,1728.2154541015625,-82.39253997802734,-16188.24609375,-80.40824127197266,-454.84539794921875,88.08716583251953,44.922142028808594,0.23516471683979034,4.8114800453186035
1731876976404.0,0.0,0.0,-20.0,0.0,0.0,0.0,0.0,0.0,0.0,0.0,0.0,0.0,0.0,0.0,0.0,0.0,6.168975830078125,0.0,0.0,-0.06836584955453873,0.0,1728.2154541015625,-82.39253997802734,-16188.24609375,-80.40824127197266,-454.84539794921875,88.08716583251953,44.922142028808594,0.23516471683979034,4.8114800453186035
1731876976421.0,0.0,0.0,-20.0,0.0,0.0,0.0,0.0,0.0,0.0,0.0,0.0,0.0,0.0,0.0,0.0,0.0,6.09063720703125,0.0,0.0,-0.07086600363254547,0.0,1703.3658447265625,31.625226974487305,-16439.537109375,3970.0390625,-506.23333740234375,-66.37813568115234,44.395118713378906,-0.19644035398960114,4.125221252441406
1731876976471.0,0.0,0.0,-20.0,0.0,0.0,0.0,0.0,0.0,0.0,0.0,0.0,0.0,0.0,0.0,0.0,0.0,5.922607421875,0.0,0.0,-0.0781550332903862,0.0,1457.766357421875,-49.628761291503906,-16344.6943359375,18.759614944458008,-708.9327392578125,-26.436397552490234,44.855613708496094,-0.6644689440727234,3.981917142868042
1731876976488.0,0.0,0.0,-20.0,0.0,0.0,0.0,0.0,0.0,0.0,0.0,0.0,0.0,0.0,0.0,0.0,0.0,5.83306884765625,0.0,0.0,-0.08055393397808075,0.0,1820.79541015625,-61.867923736572266,-16372.447265625,73.64488220214844,-523.60400390625,-44.92708969116211,44.923702239990234,0.22347381711006165,4.424300670623779
1731876976504.0,0.0,0.0,-20.0,0.0,0.0,0.0,0.0,0.0,0.0,0.0,0.0,0.0,0.0,0.0,0.0,0.0,5.740753173828125,0.0,0.0,-0.08289577811956406,0.0,1605.0714111328125,20.64094352722168,-16302.9228515625,22.093074798583984,-697.5791015625,-71.1122817993164,44.49293899536133,-0.12747690081596375,4.692459583282471
1731876976521.0,0.0,0.0,-20.0,0.0,0.0,0.0,0.0,0.0,0.0,0.0,0.0,0.0,0.0,0.0,0.0,0.0,5.645751953125,0.0,0.0,-0.08526638895273209,0.0,1497.496337890625,-163.02780151367188,-16190.56640625,91.0152359008789,-623.8301391601562,-106.8377456665039,45.11211395263672,-0.11826740205287933,4.415323734283447
1731876976571.0,0.0,0.0,-20.0,0.0,0.0,0.0,0.0,0.0,0.0,0.0,0.0,0.0,0.0,0.0,0.0,0.0,5.445037841796875,0.0,0.0,-0.09216419607400894,0.0,1522.927978515625,-139.08157348632812,-16293.78515625,-32.09107971191406,-772.3037109375,-60.79277420043945,44.517574310302734,0.19742271304130554,4.053414821624756
1731876976588.0,0.0,0.0,-20.0,0.0,0.0,0.0,0.0,0.0,0.0,0.0,0.0,0.0,0.0,0.0,0.0,0.0,5.33941650390625,0.0,0.0,-0.09443482756614685,0.0,1459.00439453125,-144.89382934570312,-16335.4580078125,-65.10069274902344,-734.1431884765625,-1.7965786457061768,44.75229263305664,-0.5155304670333862,3.468161106109619
1731876976605.0,0.0,0.0,-20.0,0.0,0.0,0.0,0.0,0.0,0.0,0.0,0.0,0.0,0.0,0.0,0.0,0.0,5.231201171875,0.0,0.0,-0.09664633870124817,0.0,1571.2666015625,-171.44580078125,-16163.1767578125,71.82847595214844,-798.3844604492188,-45.626502990722656,45.11144256591797,0.12298160791397095,4.260894298553467
1731876976621.0,0.0,0.0,-20.0,0.0,0.0,0.0,0.0,0.0,0.0,0.0,0.0,0.0,0.0,0.0,0.0,0.0,5.120452880859375,0.0,0.0,-0.09883120656013489,0.0,1559.998291015625,87.89224243164062,-16232.4130859375,198.69590759277344,-715.329833984375,-94.87196350097656,45.09962463378906,0.5023952722549438,3.920278549194336
1731876976655.0,0.0,0.0,-20.0,0.0,0.0,0.0,0.0,0.0,0.0,0.0,0.0,0.0,0.0,0.0,0.0,0.0,5.0072021484375,0.0,0.0,-0.10313419252634048,0.0,1450.329345703125,-202.36160278320312,-16402.30859375,-130.50357055664062,-565.8929443359375,-80.62458801269531,44.89227294921875,0.4530022442340851,4.611614227294922
1731876976688.0,0.0,0.0,-20.0,0.0,0.0,0.0,0.0,0.0,0.0,0.0,0.0,0.0,0.0,0.0,0.0,0.0,4.768402099609375,0.0,0.0,-0.10730751603841782,0.0,1250.5015869140625,-122.5008773803711,-16404.04296875,-46.10934829711914,-717.6707153320312,-88.29548645019531,44.90007781982422,0.12038978189229965,4.179962158203125
1731876976705.0,0.0,0.0,-20.0,0.0,0.0,0.0,0.0,0.0,0.0,0.0,0.0,0.0,0.0,0.0,0.0,0.0,4.64544677734375,0.0,0.0,-0.10940972715616226,0.0,1235.5537109375,-37.70109558105469,-16328.0341796875,-37.39341354370117,-683.9354248046875,6.28466272354126,44.88966751098633,-0.3334996700286865,4.2101945877075195
1731876976721.0,0.0,0.0,-20.0,0.0,0.0,0.0,0.0,0.0,0.0,0.0,0.0,0.0,0.0,0.0,0.0,0.0,4.52008056640625,0.0,0.0,-0.11142127960920334,0.0,1200.903076171875,186.08192443847656,-16255.7734375,-66.5634536743164,-811.45654296875,-102.53346252441406,44.25739288330078,0.2513914108276367,3.841615915298462
1731876976755.0,0.0,0.0,-20.0,0.0,0.0,0.0,0.0,0.0,0.0,0.0,0.0,0.0,0.0,0.0,0.0,0.0,4.39239501953125,0.0,0.0,-0.11535172164440155,0.0,1262.7613525390625,115.19754791259766,-16223.3154296875,-43.83230209350586,-952.8450317382812,-23.899986267089844,44.68211364746094,-0.06290256977081299,3.237931251525879
1731876976771.0,0.0,0.0,-20.0,0.0,0.0,0.0,0.0,0.0,0.0,0.0,0.0,0.0,0.0,0.0,0.0,0.0,4.260223388671875,0.0,0.0,-0.11731146275997162,0.0,1332.41455078125,31.31724739074707,-16511.982421875,18.521717071533203,-877.9371337890625,4001.724609375,45.069095611572266,0.061391059309244156,3.8725385665893555
1731876976804.0,0.0,0.0,-20.0,0.0,0.0,0.0,0.0,0.0,0.0,0.0,0.0,0.0,0.0,0.0,0.0,0.0,3.989227294921875,0.0,0.0,-0.12102114409208298,0.0,1087.0107421875,-114.02865600585938,-16441.609375,5.05396032333374,-946.5929565429688,20.694133758544922,44.99827575683594,0.21095067262649536,2.829721450805664
1731876976804.0,0.0,0.0,-20.0,0.0,0.0,0.0,0.0,0.0,0.0,0.0,0.0,0.0,0.0,0.0,0.0,0.0,3.989227294921875,0.0,0.0,-0.12102114409208298,0.0,1087.0107421875,-114.02865600585938,-16441.609375,5.05396032333374,-946.5929565429688,20.694133758544922,44.99827575683594,0.21095067262649536,2.829721450805664
1731876976854.0,0.0,0.0,-20.0,0.0,0.0,0.0,0.0,0.0,0.0,0.0,0.0,0.0,0.0,0.0,0.0,0.0,3.709747314453125,0.0,0.0,-0.12638896703720093,0.0,972.1198120117188,-39.591026306152344,-16335.38671875,97.46904754638672,-884.1736450195312,-78.9803695678711,44.569007873535156,0.35648059844970703,2.5724680423736572
1731876976871.0,0.0,0.0,-20.0,0.0,0.0,0.0,0.0,0.0,0.0,0.0,0.0,0.0,0.0,0.0,0.0,0.0,3.564910888671875,0.0,0.0,-0.12811720371246338,0.0,929.7153930664062,-191.67454528808594,-16536.6171875,-15.144583702087402,-823.0725708007812,46.3071174621582,45.04966354370117,0.08904583752155304,3.3523757457733154
1731876976888.0,0.0,0.0,-20.0,0.0,0.0,0.0,0.0,0.0,0.0,0.0,0.0,0.0,0.0,0.0,0.0,0.0,3.4180908203125,0.0,0.0,-0.12979738414287567,0.0,1100.1358642578125,-22.210098266601562,-16328.931640625,-70.9326171875,-824.138671875,27.35251235961914,44.79056930541992,0.1973550021648407,2.789057970046997
1731876976905.0,0.0,0.0,-20.0,0.0,0.0,0.0,0.0,0.0,0.0,0.0,0.0,0.0,0.0,0.0,0.0,0.0,3.26934814453125,0.0,0.0,-0.13147766888141632,0.0,920.9981079101562,-28.23395347595215,-16317.8662109375,21.450708389282227,-838.0663452148438,68.70008850097656,45.032928466796875,-0.0386534258723259,2.439406156539917
1731876976921.0,0.0,0.0,-20.0,0.0,0.0,0.0,0.0,0.0,0.0,0.0,0.0,0.0,0.0,0.0,0.0,0.0,3.118682861328125,0.0,0.0,-0.13308505713939667,0.0,916.078369140625,-8.531268119812012,-16444.798828125,37.217063903808594,-901.7822875976562,-17.466062545776367,44.797550201416016,0.35772186517715454,1.8329309225082397
1731876976971.0,0.0,0.0,-20.0,0.0,0.0,0.0,0.0,0.0,0.0,0.0,0.0,0.0,0.0,0.0,0.0,0.0,2.81011962890625,0.0,0.0,-0.13771797716617584,0.0,979.4728393554688,-56.50041580200195,-16458.265625,12.443467140197754,-971.2083129882812,-4.591953754425049,45.258522033691406,0.691693127155304,1.5295801162719727
1731876976988.0,0.0,0.0,-20.0,0.0,0.0,0.0,0.0,0.0,0.0,0.0,0.0,0.0,0.0,0.0,0.0,0.0,2.652313232421875,0.0,0.0,-0.13917525112628937,0.0,847.6372680664062,79.1185073852539,-16319.5537109375,-37.40966033935547,-1021.1332397460938,-10.50944995880127,45.759395599365234,0.9187490344047546,1.3724582195281982
1731876977005.0,0.0,0.0,-20.0,0.0,0.0,0.0,0.0,0.0,0.0,0.0,0.0,0.0,0.0,0.0,0.0,0.0,2.492828369140625,0.0,0.0,-0.14060445129871368,0.0,679.9764404296875,44.685359954833984,-16298.3857421875,49.54302215576172,-1098.5443115234375,-69.96517944335938,45.18067932128906,0.20158223807811737,1.9204740524291992
1731876977021.0,0.0,0.0,-20.0,0.0,0.0,0.0,0.0,0.0,0.0,0.0,0.0,0.0,0.0,0.0,0.0,0.0,2.331695556640625,0.0,0.0,-0.14198432862758636,0.0,634.895751953125,-136.19778442382812,-16414.216796875,10.629942893981934,-982.8753051757812,95.22315979003906,44.842430114746094,-0.2503122389316559,2.007072925567627
1731876977055.0,0.0,0.0,-20.0,0.0,0.0,0.0,0.0,0.0,0.0,0.0,0.0,0.0,0.0,0.0,0.0,0.0,2.16900634765625,0.0,0.0,-0.14463573694229126,0.0,683.2139282226562,1.8194953203201294,-16438.048828125,-17.841890335083008,-1146.1500244140625,-145.30636596679688,44.92329406738281,-0.2705433964729309,2.2195587158203125
1731876977088.0,0.0,0.0,-20.0,0.0,0.0,0.0,0.0,0.0,0.0,0.0,0.0,0.0,0.0,0.0,0.0,0.0,1.836090087890625,0.0,0.0,-0.14713536202907562,0.0,611.8067626953125,144.4210968017578,-16149.9873046875,-23.542949676513672,-1201.89306640625,-26.801000595092773,44.368751525878906,-0.4474838376045227,1.395638346672058
1731876977105.0,0.0,0.0,-20.0,0.0,0.0,0.0,0.0,0.0,0.0,0.0,0.0,0.0,0.0,0.0,0.0,0.0,1.66748046875,0.0,0.0,-0.14830657839775085,0.0,516.4330444335938,-62.988365173339844,-16400.2890625,10.403170585632324,-1318.1959228515625,117.69645690917969,45.10752868652344,0.15726613998413086,1.5078266859054565
1731876977105.0,0.0,0.0,-20.0,0.0,0.0,0.0,0.0,0.0,0.0,0.0,0.0,0.0,0.0,0.0,0.0,0.0,1.66748046875,0.0,0.0,-0.14830657839775085,0.0,516.4330444335938,-62.988365173339844,-16400.2890625,10.403170585632324,-1318.1959228515625,117.69645690917969,45.10752868652344,0.15726613998413086,1.5078266859054565
1731876977155.0,0.0,0.0,-20.0,0.0,0.0,0.0,0.0,0.0,0.0,0.0,0.0,0.0,0.0,0.0,0.0,0.0,1.326263427734375,0.0,0.0,-0.15162301063537598,0.0,533.4678955078125,-131.31654357910156,-16259.2880859375,24.77606964111328,-1181.948486328125,-76.63348388671875,44.70785140991211,0.27782341837882996,1.076780915260315
1731876977171.0,0.0,0.0,-20.0,0.0,0.0,0.0,0.0,0.0,0.0,0.0,0.0,0.0,0.0,0.0,0.0,0.0,1.15252685546875,0.0,0.0,-0.15262949466705322,0.0,401.9565124511719,173.72982788085938,-16344.416015625,-87.95925903320312,-1340.2869873046875,-62.048336029052734,44.986717224121094,-0.18987759947776794,0.8470213413238525
1731876977188.0,0.0,0.0,-20.0,0.0,0.0,0.0,0.0,0.0,0.0,0.0,0.0,0.0,0.0,0.0,0.0,0.0,0.977630615234375,0.0,0.0,-0.153608500957489,0.0,210.83663940429688,198.9811553955078,-16512.263671875,-13.129436492919922,-1292.0692138671875,38.294044494628906,45.16379928588867,0.11912863701581955,0.24620360136032104
1731876977205.0,0.0,0.0,-20.0,0.0,0.0,0.0,0.0,0.0,0.0,0.0,0.0,0.0,0.0,0.0,0.0,0.0,0.801605224609375,0.0,0.0,-0.1545378565788269,0.0,293.1669921875,7.738705635070801,-16434.79296875,9.289531707763672,-1233.898681640625,44.52745819091797,44.828792572021484,-0.40628623962402344,0.5514403581619263
1731876977221.0,0.0,0.0,-20.0,0.0,0.0,0.0,0.0,0.0,0.0,0.0,0.0,0.0,0.0,0.0,0.0,0.0,0.62451171875,0.0,0.0,-0.15542463958263397,0.0,121.45301818847656,-46.30256652832031,-16459.359375,-164.92674255371094,-1148.5146484375,-21.166683197021484,44.47426223754883,0.31372693181037903,0.27846968173980713
1731876977255.0,0.0,0.0,-20.0,0.0,0.0,0.0,0.0,0.0,0.0,0.0,0.0,0.0,0.0,0.0,0.0,0.0,0.4464111328125,0.0,0.0,-0.15708091855049133,0.0,145.63999938964844,47.24906921386719,-16203.8701171875,24.747377395629883,-1004.6195068359375,24.482789993286133,44.83112335205078,0.05031829699873924,0.06516307592391968
1731876977288.0,0.0,0.0,-20.0,0.0,0.0,0.0,0.0,0.0,0.0,0.0,0.0,0.0,0.0,0.0,0.0,0.0,0.085540771484375,0.0,0.0,-0.15856656432151794,0.0,-57.736080169677734,51.832176208496094,-16334.142578125,-27.263538360595703,-1259.11181640625,54.639549255371094,45.038169860839844,-0.4061688780784607,-0.14219842851161957
1731876977305.0,0.0,0.0,-20.0,0.0,0.0,0.0,0.0,0.0,0.0,0.0,0.0,0.0,0.0,0.0,0.0,0.0,-0.09616918861865997,0.0,0.0,-0.15923534333705902,0.0,8.5201416015625,-100.34492492675781,-16184.7470703125,12.5087890625,-1107.192138671875,10.520930290222168,45.18143844604492,-0.06271747499704361,-0.29662367701530457
1731876977305.0,0.0,0.0,-20.0,0.0,0.0,0.0,0.0,0.0,0.0,0.0,0.0,0.0,0.0,0.0,0.0,0.0,-0.09616918861865997,0.0,0.0,-0.15923534333705902,0.0,8.5201416015625,-100.34492492675781,-16184.7470703125,12.5087890625,-1107.192138671875,10.520930290222168,45.18143844604492,-0.06271747499704361,-0.29662367701530457
1731876977355.0,0.0,0.0,-20.0,0.0,0.0,0.0,0.0,0.0,0.0,0.0,0.0,0.0,0.0,0.0,0.0,0.0,-0.46183595061302185,0.0,0.0,-0.16098526120185852,0.0,17.030044555664062,133.7795867919922,-16447.779296875,10.111541748046875,-1288.826171875,-146.64663696289062,44.80656814575195,0.3913813531398773,-1.112567663192749
1731876977372.0,0.0,0.0,-20.0,0.0,0.0,0.0,0.0,0.0,0.0,0.0,0.0,0.0,0.0,0.0,0.0,0.0,-0.6463114619255066,0.0,0.0,-0.1614837646484375,0.0,-150.14414978027344,-146.43978881835938,-16495.32421875,16.13521957397461,-1010.8543090820312,95.53514862060547,45.24098205566406,-0.017678221687674522,-0.5862800478935242
1731876977405.0,0.0,0.0,-20.0,0.0,0.0,0.0,0.0,0.0,0.0,0.0,0.0,0.0,0.0,0.0,0.0,0.0,-1.0169166326522827,0.0,0.0,-0.16233201324939728,0.0,-244.67364501953125,16.333789825439453,-16410.037109375,16.954919815063477,-1439.926025390625,6.779953956604004,45.11841583251953,-0.301557332277298,-0.5336527824401855
1731876977405.0,0.0,0.0,-20.0,0.0,0.0,0.0,0.0,0.0,0.0,0.0,0.0,0.0,0.0,0.0,0.0,0.0,-1.0169166326522827,0.0,0.0,-0.16233201324939728,0.0,-244.67364501953125,16.333789825439453,-16410.037109375,16.954919815063477,-1439.926025390625,6.779953956604004,45.11841583251953,-0.301557332277298,-0.5336527824401855
1731876977422.0,0.0,0.0,-20.0,0.0,0.0,0.0,0.0,0.0,0.0,0.0,0.0,0.0,0.0,0.0,0.0,0.0,-1.2029355764389038,0.0,0.0,-0.16269400715827942,0.0,-332.53314208984375,-95.0654296875,-16415.13671875,10.431326866149902,-1145.85009765625,36.85942840576172,44.79468536376953,-0.26229214668273926,-0.5943917036056519
1731876977472.0,0.0,0.0,-20.0,0.0,0.0,0.0,0.0,0.0,0.0,0.0,0.0,0.0,0.0,0.0,0.0,0.0,-1.576465368270874,0.0,0.0,-0.16349825263023376,0.0,-601.1535034179688,101.32278442382812,-16406.98046875,30.529464721679688,-1317.008056640625,257.91986083984375,44.65412902832031,-0.009397474117577076,-1.2454888820648193
1731876977489.0,0.0,0.0,-20.0,0.0,0.0,0.0,0.0,0.0,0.0,0.0,0.0,0.0,0.0,0.0,0.0,0.0,-1.7638205289840698,0.0,0.0,-0.16367384791374207,0.0,-352.31756591796875,-90.62323760986328,-16120.294921875,-11.189445495605469,-1155.568359375,70.95588684082031,44.91954040527344,-0.2530713975429535,-1.4812341928482056
1731876977505.0,0.0,0.0,-20.0,0.0,0.0,0.0,0.0,0.0,0.0,0.0,0.0,0.0,0.0,0.0,0.0,0.0,-1.9513769149780273,0.0,0.0,-0.16380435228347778,0.0,-578.745849609375,-172.31320190429688,-16224.3193359375,42.284664154052734,-968.0181884765625,-41.37149429321289,44.86640167236328,0.1810465306043625,-1.9272704124450684
1731876977522.0,0.0,0.0,-20.0,0.0,0.0,0.0,0.0,0.0,0.0,0.0,0.0,0.0,0.0,0.0,0.0,0.0,-2.139082670211792,0.0,0.0,-0.16389060020446777,0.0,-597.3009033203125,32.47343063354492,-16240.126953125,-88.32181549072266,-1454.1417236328125,30.637771606445312,44.59510803222656,0.5643094182014465,-1.876998782157898
1731876977572.0,0.0,0.0,-20.0,0.0,0.0,0.0,0.0,0.0,0.0,0.0,0.0,0.0,0.0,0.0,0.0,0.0,-2.5147311687469482,0.0,0.0,-0.16387304663658142,0.0,-787.5547485351562,-103.35536193847656,-16112.794921875,-8.893477439880371,-1376.8931884765625,129.40591430664062,44.81450653076172,-0.22409866750240326,-1.5622659921646118
1731876977588.0,0.0,0.0,-20.0,0.0,0.0,0.0,0.0,0.0,0.0,0.0,0.0,0.0,0.0,0.0,0.0,0.0,-2.7025158405303955,0.0,0.0,-0.1637767106294632,0.0,-536.9088134765625,-10.863801002502441,-16516.91796875,2.587442636489868,-1184.948974609375,-56.926536560058594,44.98855972290039,-0.5679852366447449,-2.732412576675415
1731876977605.0,0.0,0.0,-20.0,0.0,0.0,0.0,0.0,0.0,0.0,0.0,0.0,0.0,0.0,0.0,0.0,0.0,-2.890190601348877,0.0,0.0,-0.1636352241039276,0.0,-855.7259521484375,-90.91134643554688,-16323.9296875,-37.96115493774414,-1145.516845703125,-86.34879302978516,44.52833557128906,0.26988670229911804,-2.029041290283203
1731876977622.0,0.0,0.0,-20.0,0.0,0.0,0.0,0.0,0.0,0.0,0.0,0.0,0.0,0.0,0.0,0.0,0.0,-3.077702283859253,0.0,0.0,-0.16344863176345825,0.0,-950.759765625,-81.39979553222656,-16350.408203125,85.84664154052734,-1283.4278564453125,7.172989368438721,44.50394058227539,0.4577915370464325,-2.162275552749634
1731876977655.0,0.0,0.0,-20.0,0.0,0.0,0.0,0.0,0.0,0.0,0.0,0.0,0.0,0.0,0.0,0.0,0.0,-3.265000343322754,0.0,0.0,-0.16293376684188843,0.0,-995.6414794921875,-50.40947723388672,-16486.15234375,-1.9881963729858398,-996.732666015625,16.0784969329834,45.05400085449219,-0.4734545052051544,-2.7196364402770996
1731876977689.0,0.0,0.0,-20.0,0.0,0.0,0.0,0.0,0.0,0.0,0.0,0.0,0.0,0.0,0.0,0.0,0.0,-3.6380443572998047,0.0,0.0,-0.16224107146263123,0.0,-949.1336059570312,-116.56582641601562,-16297.34375,-93.37609100341797,-1207.04052734375,-48.5866813659668,44.474674224853516,0.038054145872592926,-2.596522092819214
1731876977705.0,0.0,0.0,-20.0,0.0,0.0,0.0,0.0,0.0,0.0,0.0,0.0,0.0,0.0,0.0,0.0,0.0,-3.8239595890045166,0.0,0.0,-0.16182869672775269,0.0,-1143.57080078125,75.4970932006836,-16331.650390625,-63.519775390625,-1254.005615234375,-46.87605285644531,45.17105484008789,-0.34535425901412964,-3.655761957168579
1731876977705.0,0.0,0.0,-20.0,0.0,0.0,0.0,0.0,0.0,0.0,0.0,0.0,0.0,0.0,0.0,0.0,0.0,-3.8239595890045166,0.0,0.0,-0.16182869672775269,0.0,-1143.57080078125,75.4970932006836,-16331.650390625,-63.519775390625,-1254.005615234375,-46.87605285644531,45.17105484008789,-0.34535425901412964,-3.655761957168579
1731876977755.0,0.0,0.0,-20.0,0.0,0.0,0.0,0.0,0.0,0.0,0.0,0.0,0.0,0.0,0.0,0.0,0.0,-4.1943159103393555,0.0,0.0,-0.16030777990818024,0.0,-1102.4212646484375,-159.02618408203125,-16520.025390625,3.7890775203704834,-1252.8265380859375,-106.21885681152344,45.087833404541016,-0.16244584321975708,-3.605196475982666
1731876977772.0,0.0,0.0,-20.0,0.0,0.0,0.0,0.0,0.0,0.0,0.0,0.0,0.0,0.0,0.0,0.0,0.0,-4.378015041351318,0.0,0.0,-0.15971650183200836,0.0,-1098.6790771484375,-153.5404815673828,-16304.0810546875,-105.13107299804688,-1047.4732666015625,-4.939922332763672,44.932376861572266,-0.1845577508211136,-3.1466825008392334
1731876977805.0,0.0,0.0,-20.0,0.0,0.0,0.0,0.0,0.0,0.0,0.0,0.0,0.0,0.0,0.0,0.0,0.0,-4.743336200714111,0.0,0.0,-0.15840724110603333,0.0,-1429.0828857421875,12.370957374572754,-16363.2880859375,34.219703674316406,-1088.2747802734375,33.77704620361328,44.89591979980469,0.05347927287220955,-3.5780301094055176
1731876977805.0,0.0,0.0,-20.0,0.0,0.0,0.0,0.0,0.0,0.0,0.0,0.0,0.0,0.0,0.0,0.0,0.0,-4.743336200714111,0.0,0.0,-0.15840724110603333,0.0,-1429.0828857421875,12.370957374572754,-16363.2880859375,34.219703674316406,-1088.2747802734375,33.77704620361328,44.89591979980469,0.05347927287220955,-3.5780301094055176
1731876977822.0,0.0,0.0,-20.0,0.0,0.0,0.0,0.0,0.0,0.0,0.0,0.0,0.0,0.0,0.0,0.0,0.0,-4.9248576164245605,0.0,0.0,-0.15767382085323334,0.0,-1338.2249755859375,174.60231018066406,-16360.8173828125,-26.64436149597168,-1171.6153564453125,-61.28935241699219,44.74087905883789,0.1086823120713234,-3.5071158409118652
1731876977872.0,0.0,0.0,-20.0,0.0,0.0,0.0,0.0,0.0,0.0,0.0,0.0,0.0,0.0,0.0,0.0,0.0,-5.284392356872559,0.0,0.0,-0.15522533655166626,0.0,-1524.586181640625,-130.7332763671875,-16248.4384765625,70.6766586303711,-1302.9931640625,-26.408180236816406,44.772430419921875,0.04837189242243767,-4.0187859535217285
1731876977889.0,0.0,0.0,-20.0,0.0,0.0,0.0,0.0,0.0,0.0,0.0,0.0,0.0,0.0,0.0,0.0,0.0,-5.4622673988342285,0.0,0.0,-0.15432877838611603,0.0,-1417.52490234375,-188.6834716796875,-16400.72265625,36.686336517333984,-1143.604248046875,-76.61316680908203,44.52430725097656,0.19667476415634155,-4.644411087036133
1731876977906.0,0.0,0.0,-20.0,0.0,0.0,0.0,0.0,0.0,0.0,0.0,0.0,0.0,0.0,0.0,0.0,0.0,-5.639115810394287,0.0,0.0,-0.15338262915611267,0.0,-1551.4671630859375,-52.54865264892578,-16275.044921875,80.0634765625,-1388.6585693359375,-25.148571014404297,44.72787857055664,-0.04560060054063797,-4.166086673736572
1731876977922.0,0.0,0.0,-20.0,0.0,0.0,0.0,0.0,0.0,0.0,0.0,0.0,0.0,0.0,0.0,0.0,0.0,-5.814879894256592,0.0,0.0,-0.15240095555782318,0.0,-1731.39990234375,122.25874328613281,-16376.6728515625,40.581268310546875,-1410.9730224609375,27.87702178955078,45.157344818115234,0.255741685628891,-4.997087001800537
1731876977972.0,0.0,0.0,-20.0,0.0,0.0,0.0,0.0,0.0,0.0,0.0,0.0,0.0,0.0,0.0,0.0,0.0,-6.1617536544799805,0.0,0.0,-0.14918017387390137,0.0,-1845.38037109375,8.624021530151367,-16307.78515625,-42.0895881652832,-960.3674926757812,136.65762329101562,44.54447937011719,-0.18573112785816193,-4.647472858428955
1731876977989.0,0.0,0.0,-20.0,0.0,0.0,0.0,0.0,0.0,0.0,0.0,0.0,0.0,0.0,0.0,0.0,0.0,-6.33270263671875,0.0,0.0,-0.14803992211818695,0.0,-1763.4547119140625,-99.58980560302734,-16281.2802734375,-47.95146179199219,-923.9623413085938,-50.29930877685547,44.91825485229492,-0.17720553278923035,-4.593169689178467
1731876978006.0,0.0,0.0,-20.0,0.0,0.0,0.0,0.0,0.0,0.0,0.0,0.0,0.0,0.0,0.0,0.0,0.0,-6.50234317779541,0.0,0.0,-0.14683277904987335,0.0,-1894.453369140625,-11.216300010681152,-16427.716796875,11.082121849060059,-1046.5634765625,71.16053009033203,44.6027717590332,0.09825179725885391,-4.772735118865967
1731876978022.0,0.0,0.0,-20.0,0.0,0.0,0.0,0.0,0.0,0.0,0.0,0.0,0.0,0.0,0.0,0.0,0.0,-6.670600891113281,0.0,0.0,-0.14560237526893616,0.0,-2025.4697265625,-30.35491180419922,-16212.376953125,44.92642593383789,-1082.35546875,70.10383605957031,44.31611251831055,-0.28128400444984436,-5.3035888671875
1731876978056.0,0.0,0.0,-20.0,0.0,0.0,0.0,0.0,0.0,0.0,0.0,0.0,0.0,0.0,0.0,0.0,0.0,-6.837448596954346,0.0,0.0,-0.14300192892551422,0.0,-1936.154541015625,-8.499530792236328,-16121.1689453125,-13.960708618164062,-1089.7471923828125,-57.907127380371094,44.65390396118164,0.33423444628715515,-5.339493751525879
1731876978089.0,0.0,0.0,-20.0,0.0,0.0,0.0,0.0,0.0,0.0,0.0,0.0,0.0,0.0,0.0,0.0,0.0,-7.163661479949951,0.0,0.0,-0.14026226103305817,0.0,-1829.5859375,-106.62044525146484,-16358.1533203125,156.290283203125,-1173.5816650390625,58.274009704589844,44.51885223388672,0.14538896083831787,-5.286235809326172
1731876978106.0,0.0,0.0,-20.0,0.0,0.0,0.0,0.0,0.0,0.0,0.0,0.0,0.0,0.0,0.0,0.0,0.0,-7.324389934539795,0.0,0.0,-0.13882361352443695,0.0,-2071.80029296875,163.14114379882812,-16130.59765625,-100.6390609741211,-1073.8458251953125,-15.565850257873535,44.69359588623047,-0.08166256546974182,-6.02770471572876
1731876978122.0,0.0,0.0,-20.0,0.0,0.0,0.0,0.0,0.0,0.0,0.0,0.0,0.0,0.0,0.0,0.0,0.0,-7.483471393585205,0.0,0.0,-0.13733519613742828,0.0,-2097.20361328125,-7.778134822845459,-16325.08203125,-20.824710845947266,-911.4469604492188,-55.0717658996582,45.05512237548828,0.0037371318321675062,-5.5282206535339355
1731876978156.0,0.0,0.0,-20.0,0.0,0.0,0.0,0.0,0.0,0.0,0.0,0.0,0.0,0.0,0.0,0.0,0.0,-7.640844821929932,0.0,0.0,-0.1342763602733612,0.0,-2247.4248046875,80.58604431152344,-16003.5458984375,-47.691986083984375,-921.1762084960938,66.302734375,44.54157638549805,0.1310097575187683,-6.059662818908691
1731876978173.0,0.0,0.0,-20.0,0.0,0.0,0.0,0.0,0.0,0.0,0.0,0.0,0.0,0.0,0.0,0.0,0.0,-7.794714450836182,0.0,0.0,-0.13268491625785828,0.0,-2168.84326171875,94.1125717163086,-16117.779296875,-167.84095764160156,-909.706298828125,162.15585327148438,44.57548904418945,0.26518234610557556,-5.945430278778076
1731876978206.0,0.0,0.0,-20.0,0.0,0.0,0.0,0.0,0.0,0.0,0.0,0.0,0.0,0.0,0.0,0.0,0.0,-8.096953392028809,0.0,0.0,-0.12940345704555511,0.0,-2172.707275390625,29.925241470336914,-16094.552734375,8.530021667480469,-905.29931640625,-38.38372802734375,44.214447021484375,-0.11990729719400406,-6.597198486328125
1731876978206.0,0.0,0.0,-20.0,0.0,0.0,0.0,0.0,0.0,0.0,0.0,0.0,0.0,0.0,0.0,0.0,0.0,-8.096953392028809,0.0,0.0,-0.12940345704555511,0.0,-2172.707275390625,29.925241470336914,-16094.552734375,8.530021667480469,-905.29931640625,-38.38372802734375,44.214447021484375,-0.11990729719400406,-6.597198486328125
1731876978256.0,0.0,0.0,-20.0,0.0,0.0,0.0,0.0,0.0,0.0,0.0,0.0,0.0,0.0,0.0,0.0,0.0,-8.39157485961914,0.0,0.0,-0.1241803765296936,0.0,-2269.224609375,-116.98100280761719,-16192.134765625,-66.03922271728516,-1100.100830078125,-33.8292236328125,44.94210433959961,0.6723892688751221,-6.943539142608643
1731876978273.0,0.0,0.0,-20.0,0.0,0.0,0.0,0.0,0.0,0.0,0.0,0.0,0.0,0.0,0.0,0.0,0.0,-8.53387451171875,0.0,0.0,-0.1223866418004036,0.0,-2647.7978515625,-90.56851959228516,-16123.966796875,50.029693603515625,-879.207763671875,75.80103302001953,44.19627380371094,-0.24979840219020844,-6.564901828765869
1731876978306.0,0.0,0.0,-20.0,0.0,0.0,0.0,0.0,0.0,0.0,0.0,0.0,0.0,0.0,0.0,0.0,0.0,-8.81226921081543,0.0,0.0,-0.11869848519563675,0.0,-2497.025634765625,131.41871643066406,-16116.951171875,-37.00492858886719,-731.8668212890625,-48.686195373535156,44.45362854003906,0.08997463434934616,-6.836271286010742
1731876978306.0,0.0,0.0,-20.0,0.0,0.0,0.0,0.0,0.0,0.0,0.0,0.0,0.0,0.0,0.0,0.0,0.0,-8.81226921081543,0.0,0.0,-0.11869848519563675,0.0,-2497.025634765625,131.41871643066406,-16116.951171875,-37.00492858886719,-731.8668212890625,-48.686195373535156,44.45362854003906,0.08997463434934616,-6.836271286010742
1731876978356.0,0.0,0.0,-20.0,0.0,0.0,0.0,0.0,0.0,0.0,0.0,0.0,0.0,0.0,0.0,0.0,0.0,-9.08210563659668,0.0,0.0,-0.11289320141077042,0.0,-2555.60546875,-6.56074857711792,-16185.5458984375,-18.436891555786133,-800.4345092773438,-94.61555480957031,45.26179122924805,0.5293858647346497,-6.990228652954102
1731876978373.0,0.0,0.0,-20.0,0.0,0.0,0.0,0.0,0.0,0.0,0.0,0.0,0.0,0.0,0.0,0.0,0.0,-9.21147346496582,0.0,0.0,-0.11087488383054733,0.0,-2604.50927734375,81.28237915039062,-16210.42578125,39.599002838134766,-922.5152587890625,85.39726257324219,44.729251861572266,-0.09534101188182831,-6.96824836730957
1731876978389.0,0.0,0.0,-20.0,0.0,0.0,0.0,0.0,0.0,0.0,0.0,0.0,0.0,0.0,0.0,0.0,0.0,-9.338526725769043,0.0,0.0,-0.10885504633188248,0.0,-2749.336669921875,62.55746841430664,-16128.271484375,-20.840099334716797,-804.8818969726562,-32.680084228515625,44.68335723876953,0.09544628858566284,-7.014369487762451
1731876978406.0,0.0,0.0,-20.0,0.0,0.0,0.0,0.0,0.0,0.0,0.0,0.0,0.0,0.0,0.0,0.0,0.0,-9.463264465332031,0.0,0.0,-0.10680519789457321,0.0,-2652.328125,100.29054260253906,-16192.5419921875,-25.317060470581055,-820.6898193359375,49.951072692871094,44.34543228149414,-0.05715801939368248,-7.243696689605713
1731876978423.0,0.0,0.0,-20.0,0.0,0.0,0.0,0.0,0.0,0.0,0.0,0.0,0.0,0.0,0.0,0.0,0.0,-9.585654258728027,0.0,0.0,-0.10469511151313782,0.0,-2604.520751953125,-85.65262603759766,-16117.3662109375,-130.02786254882812,-724.8373413085938,-3.412135601043701,44.78654479980469,-0.05376486852765083,-7.288444995880127
1731876978473.0,0.0,0.0,-20.0,0.0,0.0,0.0,0.0,0.0,0.0,0.0,0.0,0.0,0.0,0.0,0.0,0.0,-9.82071590423584,0.0,0.0,-0.09825313836336136,0.0,-2720.157958984375,-6.938395977020264,-16248.6650390625,-42.94502639770508,-658.6572875976562,109.74237060546875,44.05348205566406,-0.42670515179634094,-7.197263240814209
1731876978489.0,0.0,0.0,-20.0,0.0,0.0,0.0,0.0,0.0,0.0,0.0,0.0,0.0,0.0,0.0,0.0,0.0,-9.933305740356445,0.0,0.0,-0.09607735276222229,0.0,-2734.97509765625,47.76559066772461,-16165.6669921875,-39.21090316772461,-811.2138061523438,26.18825340270996,44.02882385253906,-0.3102954030036926,-7.370946407318115
1731876978506.0,0.0,0.0,-20.0,0.0,0.0,0.0,0.0,0.0,0.0,0.0,0.0,0.0,0.0,0.0,0.0,0.0,-10.043401718139648,0.0,0.0,-0.09384265542030334,0.0,-2871.7490234375,29.185867309570312,-16268.986328125,136.4119415283203,-697.1555786132812,20.54059410095215,44.2781982421875,0.16528508067131042,-7.358063220977783
1731876978523.0,0.0,0.0,-20.0,0.0,0.0,0.0,0.0,0.0,0.0,0.0,0.0,0.0,0.0,0.0,0.0,0.0,-10.150938034057617,0.0,0.0,-0.09159830957651138,0.0,-2813.857666015625,65.00609588623047,-16209.59765625,43.52641296386719,-676.64111328125,-66.74298858642578,44.610660552978516,0.4836586117744446,-7.792562484741211
1731876978573.0,0.0,0.0,-20.0,0.0,0.0,0.0,0.0,0.0,0.0,0.0,0.0,0.0,0.0,0.0,0.0,0.0,-10.355616569519043,0.0,0.0,-0.0847163051366806,0.0,-3097.091064453125,-89.55604553222656,-16152.6708984375,73.49755859375,-456.19293212890625,-44.22770309448242,44.108375549316406,0.1724313646554947,-7.930838108062744
1731876978589.0,0.0,0.0,-20.0,0.0,0.0,0.0,0.0,0.0,0.0,0.0,0.0,0.0,0.0,0.0,0.0,0.0,-10.452693939208984,0.0,0.0,-0.08237475901842117,0.0,-3209.8740234375,175.9956512451172,-15925.578125,-36.75535202026367,-604.4601440429688,-54.10321044921875,44.63344955444336,-0.010902275331318378,-8.359969139099121
1731876978606.0,0.0,0.0,-20.0,0.0,0.0,0.0,0.0,0.0,0.0,0.0,0.0,0.0,0.0,0.0,0.0,0.0,-10.547087669372559,0.0,0.0,-0.07997557520866394,0.0,-3124.434326171875,20.296934127807617,-15942.5087890625,67.45289611816406,-511.3619689941406,55.114139556884766,44.7048225402832,0.2187589555978775,-8.489307403564453
1731876978622.0,0.0,0.0,-20.0,0.0,0.0,0.0,0.0,0.0,0.0,0.0,0.0,0.0,0.0,0.0,0.0,0.0,-10.638733863830566,0.0,0.0,-0.07762421667575836,0.0,-2980.556396484375,103.18048858642578,-15986.9150390625,159.2008056640625,-832.8876953125,-75.32034301757812,44.37245559692383,-0.016373934224247932,-8.15861988067627
1731876978656.0,0.0,0.0,-20.0,0.0,0.0,0.0,0.0,0.0,0.0,0.0,0.0,0.0,0.0,0.0,0.0,0.0,-10.72768497467041,0.0,0.0,-0.07275223731994629,0.0,-2980.989501953125,50.13507843017578,-16240.0390625,-10.669411659240723,-406.498779296875,-83.43451690673828,44.47844696044922,-0.14158055186271667,-8.321857452392578
1731876978673.0,0.0,0.0,-20.0,0.0,0.0,0.0,0.0,0.0,0.0,0.0,0.0,0.0,0.0,0.0,0.0,0.0,-10.811053276062012,0.0,0.0,-0.07023113965988159,0.0,-2958.1044921875,-43.863582611083984,-16180.7978515625,-4.0875444412231445,-504.5411682128906,2.659867286682129,44.477325439453125,0.49791663885116577,-8.091339111328125
1731876978706.0,0.0,0.0,-20.0,0.0,0.0,0.0,0.0,0.0,0.0,0.0,0.0,0.0,0.0,0.0,0.0,0.0,-10.969223022460938,0.0,0.0,-0.06525668501853943,0.0,-3207.4462890625,5.955194473266602,-16318.9970703125,103.02604675292969,-501.76080322265625,79.72161102294922,44.279937744140625,0.607986330986023,-7.978043556213379
1731876978706.0,0.0,0.0,-20.0,0.0,0.0,0.0,0.0,0.0,0.0,0.0,0.0,0.0,0.0,0.0,0.0,0.0,-10.969223022460938,0.0,0.0,-0.06525668501853943,0.0,-3207.4462890625,5.955194473266602,-16318.9970703125,103.02604675292969,-501.76080322265625,79.72161102294922,44.279937744140625,0.607986330986023,-7.978043556213379
1731876978756.0,0.0,0.0,-20.0,0.0,0.0,0.0,0.0,0.0,0.0,0.0,0.0,0.0,0.0,0.0,0.0,0.0,-11.115910530090332,0.0,0.0,-0.05767025053501129,0.0,-3345.870361328125,-59.92447280883789,-16063.013671875,-123.6180648803711,-367.7062683105469,-52.767154693603516,44.16514205932617,-0.07888542860746384,-8.320816040039062
1731876978773.0,0.0,0.0,-20.0,0.0,0.0,0.0,0.0,0.0,0.0,0.0,0.0,0.0,0.0,0.0,0.0,0.0,-11.181994438171387,0.0,0.0,-0.05505828931927681,0.0,-3180.117919921875,22.403928756713867,-16094.3662109375,53.955352783203125,-321.7451477050781,-22.210708618164062,44.28596878051758,0.24054035544395447,-8.497387886047363
1731876978790.0,0.0,0.0,-20.0,0.0,0.0,0.0,0.0,0.0,0.0,0.0,0.0,0.0,0.0,0.0,0.0,0.0,-11.245085716247559,0.0,0.0,-0.05250632017850876,0.0,-3212.29345703125,-72.30579376220703,-16144.810546875,-42.590545654296875,-330.233154296875,-12.83329963684082,44.12797164916992,0.02681720070540905,-9.268972396850586
1731876978806.0,0.0,0.0,-20.0,0.0,0.0,0.0,0.0,0.0,0.0,0.0,0.0,0.0,0.0,0.0,0.0,0.0,-11.305253982543945,0.0,0.0,-0.049901969730854034,0.0,-3189.193115234375,-196.7281951904297,-15996.7265625,104.6369857788086,-372.66534423828125,24.934669494628906,43.88287353515625,-0.10891778767108917,-8.698531150817871
1731876978823.0,0.0,0.0,-20.0,0.0,0.0,0.0,0.0,0.0,0.0,0.0,0.0,0.0,0.0,0.0,0.0,0.0,-11.36243724822998,0.0,0.0,-0.047283656895160675,0.0,-3158.24658203125,208.64036560058594,-16036.9873046875,36.44647216796875,-343.6124267578125,60.28720474243164,44.14555740356445,0.11500264704227448,-8.94482421875
1731876978873.0,0.0,0.0,-20.0,0.0,0.0,0.0,0.0,0.0,0.0,0.0,0.0,0.0,0.0,0.0,0.0,0.0,-11.4647798538208,0.0,0.0,-0.039352331310510635,0.0,-3133.505126953125,72.59410858154297,-15926.845703125,92.68815612792969,-264.8522644042969,-3.7768051624298096,44.11962890625,0.21907398104667664,-8.831140518188477
1731876978890.0,0.0,0.0,-20.0,0.0,0.0,0.0,0.0,0.0,0.0,0.0,0.0,0.0,0.0,0.0,0.0,0.0,-11.509873390197754,0.0,0.0,-0.03672455996274948,0.0,-3329.7509765625,101.45140838623047,-16041.8935546875,21.341594696044922,-205.20462036132812,80.40586853027344,44.42440414428711,0.055503688752651215,-9.387877464294434
1731876978907.0,0.0,0.0,-20.0,0.0,0.0,0.0,0.0,0.0,0.0,0.0,0.0,0.0,0.0,0.0,0.0,0.0,-11.551956176757812,0.0,0.0,-0.03402809053659439,0.0,-3216.711181640625,38.47174835205078,-15932.013671875,-71.13101959228516,-222.08578491210938,-134.9535369873047,44.493892669677734,0.5174898505210876,-8.916762351989746
1731876978923.0,0.0,0.0,-20.0,0.0,0.0,0.0,0.0,0.0,0.0,0.0,0.0,0.0,0.0,0.0,0.0,0.0,-11.590951919555664,0.0,0.0,-0.03136125206947327,0.0,-3146.9580078125,-143.57907104492188,-16081.4619140625,44.912696838378906,-247.11459350585938,-140.55987548828125,44.342681884765625,0.1328912228345871,-9.031564712524414
1731876978973.0,0.0,0.0,-20.0,0.0,0.0,0.0,0.0,0.0,0.0,0.0,0.0,0.0,0.0,0.0,0.0,0.0,-11.65664005279541,0.0,0.0,-0.0232325941324234,0.0,-3071.304443359375,-73.21868133544922,-15988.7978515625,-45.482521057128906,-179.25257873535156,-7.555649757385254,44.74359893798828,0.5289203524589539,-9.324676513671875
1731876978990.0,0.0,0.0,-20.0,0.0,0.0,0.0,0.0,0.0,0.0,0.0,0.0,0.0,0.0,0.0,0.0,0.0,-11.683262825012207,0.0,0.0,-0.020535437390208244,0.0,-3323.06591796875,172.41639709472656,-16038.66796875,50.59519958496094,-107.30824279785156,121.34173583984375,44.41629409790039,-0.44221025705337524,-9.074627876281738
1731876979007.0,0.0,0.0,-20.0,0.0,0.0,0.0,0.0,0.0,0.0,0.0,0.0,0.0,0.0,0.0,0.0,0.0,-11.706793785095215,0.0,0.0,-0.017832620069384575,0.0,-3370.97412109375,47.50068664550781,-16116.853515625,-89.86898803710938,-97.66202545166016,-51.0413818359375,44.40812301635742,0.20978380739688873,-9.411702156066895
1731876979023.0,0.0,0.0,-20.0,0.0,0.0,0.0,0.0,0.0,0.0,0.0,0.0,0.0,0.0,0.0,0.0,0.0,-11.727228164672852,0.0,0.0,-0.01512488815933466,0.0,-3303.262939453125,-28.51740837097168,-16017.525390625,-54.67230987548828,-153.03741455078125,-28.600919723510742,43.97602844238281,-0.3476581871509552,-8.946921348571777
1731876979057.0,0.0,0.0,-20.0,0.0,0.0,0.0,0.0,0.0,0.0,0.0,0.0,0.0,0.0,0.0,0.0,0.0,-11.744560241699219,0.0,0.0,-0.009677690453827381,0.0,-3201.316650390625,62.7286376953125,-16135.412109375,4.311514854431152,-74.3748550415039,36.302490234375,43.708011627197266,0.15074394643306732,-9.32813835144043
1731876979090.0,0.0,0.0,-20.0,0.0,0.0,0.0,0.0,0.0,0.0,0.0,0.0,0.0,0.0,0.0,0.0,0.0,-11.763602256774902,0.0,0.0,-0.004199740942567587,0.0,-3385.4326171875,63.661712646484375,-16025.6396484375,31.813173294067383,-64.89984893798828,4.735572814941406,44.24502182006836,-0.21391646564006805,-9.575881958007812
1731876979107.0,0.0,0.0,-20.0,0.0,0.0,0.0,0.0,0.0,0.0,0.0,0.0,0.0,0.0,0.0,0.0,0.0,-11.768414497375488,0.0,0.0,-0.0014786318643018603,0.0,-3296.904296875,-110.74800109863281,-16018.833984375,18.512603759765625,-61.12968063354492,91.40106964111328,43.606109619140625,0.2516063451766968,-8.894258499145508
1731876979107.0,0.0,0.0,-20.0,0.0,0.0,0.0,0.0,0.0,0.0,0.0,0.0,0.0,0.0,0.0,0.0,0.0,-11.768414497375488,0.0,0.0,-0.0014786318643018603,0.0,-3296.904296875,-110.74800109863281,-16018.833984375,18.512603759765625,-61.12968063354492,91.40106964111328,43.606109619140625,0.2516063451766968,-8.894258499145508
1731876979157.0,0.0,0.0,-20.0,0.0,0.0,0.0,0.0,0.0,0.0,0.0,0.0,0.0,0.0,0.0,0.0,0.0,-11.768659591674805,0.0,0.0,0.006744124460965395,0.0,-3320.615234375,-83.68842315673828,-16085.34765625,-126.71395874023438,-2.302212953567505,53.7525749206543,44.380313873291016,-0.32464373111724854,-9.08298110961914
1731876979173.0,0.0,0.0,-20.0,0.0,0.0,0.0,0.0,0.0,0.0,0.0,0.0,0.0,0.0,0.0,0.0,0.0,-11.760931015014648,0.0,0.0,0.009482292458415031,0.0,-3359.41748046875,-32.81770324707031,-16268.52734375,50.70088195800781,65.34673309326172,13.586050033569336,44.38823699951172,0.10205180197954178,-9.530153274536133
1731876979207.0,0.0,0.0,-20.0,0.0,0.0,0.0,0.0,0.0,0.0,0.0,0.0,0.0,0.0,0.0,0.0,0.0,-11.73611068725586,0.0,0.0,0.014929979108273983,0.0,-3195.390625,-112.3489761352539,-16022.9248046875,4.784147262573242,119.67870330810547,23.910341262817383,44.40473937988281,-0.06588032096624374,-9.257311820983887
1731876979207.0,0.0,0.0,-20.0,0.0,0.0,0.0,0.0,0.0,0.0,0.0,0.0,0.0,0.0,0.0,0.0,0.0,-11.73611068725586,0.0,0.0,0.014929979108273983,0.0,-3195.390625,-112.3489761352539,-16022.9248046875,4.784147262573242,119.67870330810547,23.910341262817383,44.40473937988281,-0.06588032096624374,-9.257311820983887
1731876979257.0,0.0,0.0,-20.0,0.0,0.0,0.0,0.0,0.0,0.0,0.0,0.0,0.0,0.0,0.0,0.0,0.0,-11.69876766204834,0.0,0.0,0.023038819432258606,0.0,-3509.056396484375,-42.37249755859375,-15928.67578125,65.70609283447266,122.93840026855469,-102.8660659790039,44.42971420288086,0.14698892831802368,-8.912692070007324
1731876979273.0,0.0,0.0,-20.0,0.0,0.0,0.0,0.0,0.0,0.0,0.0,0.0,0.0,0.0,0.0,0.0,0.0,-11.672367095947266,0.0,0.0,0.025769583880901337,0.0,-3296.958984375,51.48386764526367,-16052.607421875,16.773134231567383,221.3639373779297,50.717750549316406,44.07408905029297,0.32090383768081665,-9.524816513061523
1731876979307.0,0.0,0.0,-20.0,0.0,0.0,0.0,0.0,0.0,0.0,0.0,0.0,0.0,0.0,0.0,0.0,0.0,-11.610231399536133,0.0,0.0,0.031169114634394646,0.0,-3443.24951171875,-61.02495574951172,-16064.583984375,-4.40444278717041,361.73504638671875,-62.17313766479492,43.898502349853516,0.14534758031368256,-8.350923538208008
1731876979307.0,0.0,0.0,-20.0,0.0,0.0,0.0,0.0,0.0,0.0,0.0,0.0,0.0,0.0,0.0,0.0,0.0,-11.610231399536133,0.0,0.0,0.031169114634394646,0.0,-3443.24951171875,-61.02495574951172,-16064.583984375,-4.40444278717041,361.73504638671875,-62.17313766479492,43.898502349853516,0.14534758031368256,-8.350923538208008
1731876979324.0,0.0,0.0,-20.0,0.0,0.0,0.0,0.0,0.0,0.0,0.0,0.0,0.0,0.0,0.0,0.0,0.0,-11.57451343536377,0.0,0.0,0.03383659943938255,0.0,-3399.20166015625,168.50546264648438,-15965.849609375,78.58491516113281,271.6280212402344,-46.98979187011719,44.22505569458008,-0.3545445501804352,-9.250871658325195
1731876979373.0,0.0,0.0,-20.0,0.0,0.0,0.0,0.0,0.0,0.0,0.0,0.0,0.0,0.0,0.0,0.0,0.0,-11.490888595581055,0.0,0.0,0.041780173778533936,0.0,-3149.9990234375,-160.9127960205078,-16115.82421875,-72.573974609375,279.2974853515625,-9.235058784484863,44.15495681762695,-0.2607176899909973,-9.224849700927734
1731876979390.0,0.0,0.0,-20.0,0.0,0.0,0.0,0.0,0.0,0.0,0.0,0.0,0.0,0.0,0.0,0.0,0.0,-11.443008422851562,0.0,0.0,0.04442523419857025,0.0,-3194.836669921875,39.965065002441406,-15892.5498046875,43.279232025146484,497.03619384765625,-42.63272476196289,44.06338882446289,-0.320285826921463,-8.96721363067627
1731876979407.0,0.0,0.0,-20.0,0.0,0.0,0.0,0.0,0.0,0.0,0.0,0.0,0.0,0.0,0.0,0.0,0.0,-11.392101287841797,0.0,0.0,0.0470578707754612,0.0,-3341.044189453125,27.426647186279297,-15991.3125,-37.119972229003906,247.43983459472656,8.356980323791504,44.080078125,-0.2828674614429474,-9.17888069152832
1731876979423.0,0.0,0.0,-20.0,0.0,0.0,0.0,0.0,0.0,0.0,0.0,0.0,0.0,0.0,0.0,0.0,0.0,-11.338176727294922,0.0,0.0,0.04965827614068985,0.0,-3239.5009765625,67.90318298339844,-16105.6982421875,-6.841461181640625,520.1362915039062,-36.81798553466797,43.91533660888672,-0.1264214664697647,-8.792229652404785
1731876979457.0,0.0,0.0,-20.0,0.0,0.0,0.0,0.0,0.0,0.0,0.0,0.0,0.0,0.0,0.0,0.0,0.0,-11.281271934509277,0.0,0.0,0.054836176335811615,0.0,-3123.487060546875,39.83487319946289,-16010.49609375,3.4066050052642822,348.9667053222656,98.36861419677734,43.78969955444336,0.09935874491930008,-8.63481330871582
1731876979490.0,0.0,0.0,-20.0,0.0,0.0,0.0,0.0,0.0,0.0,0.0,0.0,0.0,0.0,0.0,0.0,0.0,-11.152668952941895,0.0,0.0,0.05995317921042442,0.0,-3204.480224609375,-62.23458480834961,-16155.7138671875,-18.231046676635742,563.0894775390625,3.3757433891296387,44.4564323425293,-0.5454086661338806,-8.274540901184082
1731876979507.0,0.0,0.0,-20.0,0.0,0.0,0.0,0.0,0.0,0.0,0.0,0.0,0.0,0.0,0.0,0.0,0.0,-11.083969116210938,0.0,0.0,0.06247781962156296,0.0,-3326.923095703125,-40.497886657714844,-15891.732421875,57.733280181884766,501.2677307128906,35.96148681640625,44.39616394042969,0.05179773271083832,-8.374106407165527
1731876979507.0,0.0,0.0,-20.0,0.0,0.0,0.0,0.0,0.0,0.0,0.0,0.0,0.0,0.0,0.0,0.0,0.0,-11.083969116210938,0.0,0.0,0.06247781962156296,0.0,-3326.923095703125,-40.497886657714844,-15891.732421875,57.733280181884766,501.2677307128906,35.96148681640625,44.39616394042969,0.05179773271083832,-8.374106407165527
1731876979557.0,0.0,0.0,-20.0,0.0,0.0,0.0,0.0,0.0,0.0,0.0,0.0,0.0,0.0,0.0,0.0,0.0,-10.937865257263184,0.0,0.0,0.06998185813426971,0.0,-3041.9619140625,91.3629150390625,-16097.3271484375,-129.27272033691406,518.7918701171875,29.348800659179688,44.21355056762695,0.42948392033576965,-8.385173797607422
1731876979574.0,0.0,0.0,-20.0,0.0,0.0,0.0,0.0,0.0,0.0,0.0,0.0,0.0,0.0,0.0,0.0,0.0,-10.857672691345215,0.0,0.0,0.07246910035610199,0.0,-3205.47509765625,30.086196899414062,-15960.337890625,53.447235107421875,560.4467163085938,90.91433715820312,44.68859100341797,-0.0128878029063344,-8.1975679397583
1731876979607.0,0.0,0.0,-20.0,0.0,0.0,0.0,0.0,0.0,0.0,0.0,0.0,0.0,0.0,0.0,0.0,0.0,-10.688820838928223,0.0,0.0,0.07732827216386795,0.0,-3116.91650390625,-75.16111755371094,-16217.240234375,5.624180316925049,633.48779296875,-97.89900207519531,44.457332611083984,-0.21403060853481293,-8.12989330291748
1731876979607.0,0.0,0.0,-20.0,0.0,0.0,0.0,0.0,0.0,0.0,0.0,0.0,0.0,0.0,0.0,0.0,0.0,-10.688820838928223,0.0,0.0,0.07732827216386795,0.0,-3116.91650390625,-75.16111755371094,-16217.240234375,5.624180316925049,633.48779296875,-97.89900207519531,44.457332611083984,-0.21403060853481293,-8.12989330291748
1731876979624.0,0.0,0.0,-20.0,0.0,0.0,0.0,0.0,0.0,0.0,0.0,0.0,0.0,0.0,0.0,0.0,0.0,-10.600208282470703,0.0,0.0,0.07975222170352936,0.0,-3110.674072265625,172.5338134765625,-16149.5693359375,100.02175903320312,576.0259399414062,-45.42625427246094,44.6972541809082,-0.18424499034881592,-7.995534420013428
1731876979674.0,0.0,0.0,-20.0,0.0,0.0,0.0,0.0,0.0,0.0,0.0,0.0,0.0,0.0,0.0,0.0,0.0,-10.411993026733398,0.0,0.0,0.0868176594376564,0.0,-2957.95654296875,-86.9198226928711,-16087.2646484375,5.669706344604492,680.4551391601562,30.86094093322754,44.43722915649414,-0.16971266269683838,-8.473282814025879
1731876979690.0,0.0,0.0,-20.0,0.0,0.0,0.0,0.0,0.0,0.0,0.0,0.0,0.0,0.0,0.0,0.0,0.0,-10.312507629394531,0.0,0.0,0.08911415189504623,0.0,-2965.351806640625,-32.572349548339844,-16078.8095703125,32.78544998168945,725.553466796875,29.089284896850586,44.14498519897461,-0.07284132391214371,-7.933679580688477
1731876979707.0,0.0,0.0,-20.0,0.0,0.0,0.0,0.0,0.0,0.0,0.0,0.0,0.0,0.0,0.0,0.0,0.0,-10.210390090942383,0.0,0.0,0.09140269458293915,0.0,-2942.8525390625,-91.3589859008789,-16079.185546875,17.57151985168457,636.8161010742188,-41.74755096435547,44.68520736694336,-0.17315573990345,-7.844888210296631
1731876979724.0,0.0,0.0,-20.0,0.0,0.0,0.0,0.0,0.0,0.0,0.0,0.0,0.0,0.0,0.0,0.0,0.0,-10.105649948120117,0.0,0.0,0.0936492532491684,0.0,-2942.30517578125,183.4528350830078,-16243.5380859375,-116.79322052001953,600.931640625,36.60749435424805,44.627967834472656,0.19715632498264313,-7.820997714996338
1731876979774.0,0.0,0.0,-20.0,0.0,0.0,0.0,0.0,0.0,0.0,0.0,0.0,0.0,0.0,0.0,0.0,0.0,-9.885906219482422,0.0,0.0,0.10032660514116287,0.0,-2873.670166015625,172.0961151123047,-15937.9013671875,-38.371158599853516,843.2877197265625,-66.28369140625,44.19343185424805,0.5415199398994446,-7.607215404510498
1731876979791.0,0.0,0.0,-20.0,0.0,0.0,0.0,0.0,0.0,0.0,0.0,0.0,0.0,0.0,0.0,0.0,0.0,-9.770942687988281,0.0,0.0,0.10241817682981491,0.0,-2832.036376953125,-87.97642517089844,-16095.0078125,-10.858285903930664,774.7617797851562,-76.1200180053711,43.507755279541016,0.16441412270069122,-7.691108226776123
1731876979807.0,0.0,0.0,-20.0,0.0,0.0,0.0,0.0,0.0,0.0,0.0,0.0,0.0,0.0,0.0,0.0,0.0,-9.653580665588379,0.0,0.0,0.10455983877182007,0.0,-2867.16943359375,-110.56090545654297,-16115.6953125,18.95525550842285,797.6583862304688,-52.58356475830078,43.98561096191406,-0.23892761766910553,-7.187546730041504
1731876979824.0,0.0,0.0,-20.0,0.0,0.0,0.0,0.0,0.0,0.0,0.0,0.0,0.0,0.0,0.0,0.0,0.0,-9.53376293182373,0.0,0.0,0.10665662586688995,0.0,-2804.005859375,106.55855560302734,-16260.5830078125,-8.719001770019531,798.8819580078125,-143.7599639892578,44.13671875,-0.4515514373779297,-8.00082778930664
1731876979857.0,0.0,0.0,-20.0,0.0,0.0,0.0,0.0,0.0,0.0,0.0,0.0,0.0,0.0,0.0,0.0,0.0,-9.411542892456055,0.0,0.0,0.1107453852891922,0.0,-2739.18505859375,68.95465850830078,-16326.27734375,49.829917907714844,974.01904296875,-23.814821243286133,44.142337799072266,-0.2434491515159607,-7.684462547302246
1731876979891.0,0.0,0.0,-20.0,0.0,0.0,0.0,0.0,0.0,0.0,0.0,0.0,0.0,0.0,0.0,0.0,0.0,-9.155433654785156,0.0,0.0,0.11471118032932281,0.0,-2643.435302734375,-36.57241439819336,-16305.5537109375,-116.1644058227539,827.734130859375,18.21624755859375,44.62668228149414,-0.5070788264274597,-7.082427501678467
1731876979907.0,0.0,0.0,-20.0,0.0,0.0,0.0,0.0,0.0,0.0,0.0,0.0,0.0,0.0,0.0,0.0,0.0,-9.0239839553833,0.0,0.0,0.11663953959941864,0.0,-2516.3349609375,-164.17697143554688,-16310.3935546875,-20.771709442138672,955.8704833984375,-50.65106201171875,44.531898498535156,0.11659825593233109,-7.060408115386963
1731876979924.0,0.0,0.0,-20.0,0.0,0.0,0.0,0.0,0.0,0.0,0.0,0.0,0.0,0.0,0.0,0.0,0.0,-8.890324592590332,0.0,0.0,0.11856339871883392,0.0,-2543.173583984375,31.018096923828125,-16201.9775390625,64.95596313476562,742.19091796875,-66.45642852783203,44.16508102416992,-0.45539945363998413,-7.257442951202393
1731876979957.0,0.0,0.0,-20.0,0.0,0.0,0.0,0.0,0.0,0.0,0.0,0.0,0.0,0.0,0.0,0.0,0.0,-8.754462242126465,0.0,0.0,0.1222696602344513,0.0,-2515.5498046875,-49.75051498413086,-16065.529296875,-6.708192348480225,793.8113403320312,4.934043884277344,44.62126159667969,0.15101633965969086,-6.949826240539551
1731876979991.0,0.0,0.0,-20.0,0.0,0.0,0.0,0.0,0.0,0.0,0.0,0.0,0.0,0.0,0.0,0.0,0.0,-8.472151756286621,0.0,0.0,0.12584014236927032,0.0,-2449.791748046875,-106.16024017333984,-16457.236328125,-88.89970397949219,1062.13720703125,-95.75019836425781,44.82769775390625,0.13624341785907745,-6.741474151611328
1731876980007.0,0.0,0.0,-20.0,0.0,0.0,0.0,0.0,0.0,0.0,0.0,0.0,0.0,0.0,0.0,0.0,0.0,-8.327949523925781,0.0,0.0,0.12756694853305817,0.0,-2244.79931640625,-109.62886810302734,-16208.373046875,15.560961723327637,1086.6785888671875,-102.0135498046875,44.186012268066406,-0.5600726008415222,-6.435078144073486
1731876980024.0,0.0,0.0,-20.0,0.0,0.0,0.0,0.0,0.0,0.0,0.0,0.0,0.0,0.0,0.0,0.0,0.0,-8.181768417358398,0.0,0.0,0.12927089631557465,0.0,-2296.41552734375,115.63990783691406,-16286.439453125,16.341222763061523,953.4456176757812,-16.875656127929688,44.23072052001953,0.08200838416814804,-6.761575222015381
1731876980041.0,0.0,0.0,-20.0,0.0,0.0,0.0,0.0,0.0,0.0,0.0,0.0,0.0,0.0,0.0,0.0,0.0,-8.033636093139648,0.0,0.0,0.13095073401927948,0.0,-2248.89453125,-201.49412536621094,-16243.7138671875,54.35099792480469,1141.91162109375,39.73640823364258,44.502193450927734,-0.37980109453201294,-5.738076210021973
1731876980074.0,0.0,0.0,-20.0,0.0,0.0,0.0,0.0,0.0,0.0,0.0,0.0,0.0,0.0,0.0,0.0,0.0,-7.8835768699646,0.0,0.0,0.134163960814476,0.0,-2269.41845703125,49.30244064331055,-15987.1416015625,-21.246273040771484,921.8607788085938,39.86948013305664,44.99244689941406,-0.4168759286403656,-6.43551778793335
1731876980108.0,0.0,0.0,-20.0,0.0,0.0,0.0,0.0,0.0,0.0,0.0,0.0,0.0,0.0,0.0,0.0,0.0,-7.57431173324585,0.0,0.0,0.13723915815353394,0.0,-2079.650390625,55.48295974731445,-16144.0830078125,-7.602359771728516,1190.5965576171875,42.66278839111328,44.49689483642578,-0.13157832622528076,-5.958334445953369
1731876980124.0,0.0,0.0,-20.0,0.0,0.0,0.0,0.0,0.0,0.0,0.0,0.0,0.0,0.0,0.0,0.0,0.0,-7.417048454284668,0.0,0.0,0.138687402009964,0.0,-2012.9217529296875,-52.387908935546875,-16339.2275390625,-96.72331237792969,1116.3438720703125,54.448699951171875,44.57326889038086,0.43318095803260803,-6.082174777984619
1731876980141.0,0.0,0.0,-20.0,0.0,0.0,0.0,0.0,0.0,0.0,0.0,0.0,0.0,0.0,0.0,0.0,0.0,-7.258125305175781,0.0,0.0,0.1401297003030777,0.0,-2071.25439453125,46.020233154296875,-16226.943359375,72.46631622314453,955.93896484375,8.286561965942383,44.7309455871582,-0.14892864227294922,-5.959471702575684
1731876980174.0,0.0,0.0,-20.0,0.0,0.0,0.0,0.0,0.0,0.0,0.0,0.0,0.0,0.0,0.0,0.0,0.0,-7.097548484802246,0.0,0.0,0.14289632439613342,0.0,-1888.372314453125,64.48741912841797,-16349.33203125,120.71038818359375,1050.211181640625,24.85466194152832,44.603519439697266,-0.018234005197882652,-5.535482883453369
1731876980191.0,0.0,0.0,-20.0,0.0,0.0,0.0,0.0,0.0,0.0,0.0,0.0,0.0,0.0,0.0,0.0,0.0,-6.933801174163818,0.0,0.0,0.14421036839485168,0.0,-1896.996826171875,-17.743837356567383,-16205.1689453125,-156.13914489746094,858.0291137695312,-20.263362884521484,44.479549407958984,0.12133940309286118,-5.267116069793701
1731876980224.0,0.0,0.0,-20.0,0.0,0.0,0.0,0.0,0.0,0.0,0.0,0.0,0.0,0.0,0.0,0.0,0.0,-6.601824760437012,0.0,0.0,0.14673671126365662,0.0,-1795.7513427734375,67.61174011230469,-16163.1025390625,30.888967514038086,1338.764892578125,-71.3433837890625,44.77180480957031,0.6431043744087219,-5.132437705993652
1731876980224.0,0.0,0.0,-20.0,0.0,0.0,0.0,0.0,0.0,0.0,0.0,0.0,0.0,0.0,0.0,0.0,0.0,-6.601824760437012,0.0,0.0,0.14673671126365662,0.0,-1795.7513427734375,67.61174011230469,-16163.1025390625,30.888967514038086,1338.764892578125,-71.3433837890625,44.77180480957031,0.6431043744087219,-5.132437705993652
1731876980274.0,0.0,0.0,-20.0,0.0,0.0,0.0,0.0,0.0,0.0,0.0,0.0,0.0,0.0,0.0,0.0,0.0,-6.264141082763672,0.0,0.0,0.15021763741970062,0.0,-1522.203125,55.546424865722656,-16199.0,49.3278694152832,1016.7923583984375,25.619182586669922,44.55458450317383,-0.25493642687797546,-5.194725036621094
1731876980291.0,0.0,0.0,-20.0,0.0,0.0,0.0,0.0,0.0,0.0,0.0,0.0,0.0,0.0,0.0,0.0,0.0,-6.092004776000977,0.0,0.0,0.15127891302108765,0.0,-1695.697021484375,27.94673728942871,-16286.11328125,-40.729732513427734,1255.2952880859375,2.05244517326355,45.31641387939453,0.534386932849884,-4.820244789123535
1731876980324.0,0.0,0.0,-20.0,0.0,0.0,0.0,0.0,0.0,0.0,0.0,0.0,0.0,0.0,0.0,0.0,0.0,-5.744095802307129,0.0,0.0,0.15330635011196136,0.0,-1537.9769287109375,86.59252166748047,-16329.6318359375,-125.6716537475586,1324.23779296875,42.75033187866211,45.12185287475586,-0.34871840476989746,-4.607417106628418
1731876980324.0,0.0,0.0,-20.0,0.0,0.0,0.0,0.0,0.0,0.0,0.0,0.0,0.0,0.0,0.0,0.0,0.0,-5.744095802307129,0.0,0.0,0.15330635011196136,0.0,-1537.9769287109375,86.59252166748047,-16329.6318359375,-125.6716537475586,1324.23779296875,42.75033187866211,45.12185287475586,-0.34871840476989746,-4.607417106628418
1731876980374.0,0.0,0.0,-20.0,0.0,0.0,0.0,0.0,0.0,0.0,0.0,0.0,0.0,0.0,0.0,0.0,0.0,-5.391646862030029,0.0,0.0,0.15601299703121185,0.0,-1607.91845703125,-103.10063934326172,-16261.1396484375,118.1552734375,1324.406982421875,-31.633403778076172,44.869503021240234,0.17090573906898499,-4.198796272277832
1731876980391.0,0.0,0.0,-20.0,0.0,0.0,0.0,0.0,0.0,0.0,0.0,0.0,0.0,0.0,0.0,0.0,0.0,-5.212869167327881,0.0,0.0,0.1568271666765213,0.0,-1676.302734375,-15.22655963897705,-16183.86328125,4.5308637619018555,1095.9364013671875,77.15672302246094,45.473350524902344,0.05858190357685089,-3.8954312801361084
1731876980425.0,0.0,0.0,-20.0,0.0,0.0,0.0,0.0,0.0,0.0,0.0,0.0,0.0,0.0,0.0,0.0,0.0,-4.852545261383057,0.0,0.0,0.15834638476371765,0.0,-1360.1031494140625,-25.421415328979492,-16182.892578125,-44.236270904541016,1172.8028564453125,31.02283477783203,44.685020446777344,0.15912602841854095,-4.246589183807373
1731876980425.0,0.0,0.0,-20.0,0.0,0.0,0.0,0.0,0.0,0.0,0.0,0.0,0.0,0.0,0.0,0.0,0.0,-4.852545261383057,0.0,0.0,0.15834638476371765,0.0,-1360.1031494140625,-25.421415328979492,-16182.892578125,-44.236270904541016,1172.8028564453125,31.02283477783203,44.685020446777344,0.15912602841854095,-4.246589183807373
1731876980474.0,0.0,0.0,-20.0,0.0,0.0,0.0,0.0,0.0,0.0,0.0,0.0,0.0,0.0,0.0,0.0,0.0,-4.488865852355957,0.0,0.0,0.16026251018047333,0.0,-1343.5711669921875,-231.09231567382812,-16471.7578125,-26.18452262878418,1375.1654052734375,-86.95050048828125,45.39760971069336,0.15923386812210083,-3.5004777908325195
1731876980491.0,0.0,0.0,-20.0,0.0,0.0,0.0,0.0,0.0,0.0,0.0,0.0,0.0,0.0,0.0,0.0,0.0,-4.30521821975708,0.0,0.0,0.1608169972896576,0.0,-1268.2838134765625,-51.07317352294922,-16388.470703125,-51.1407470703125,1231.087890625,-42.655662536621094,44.440826416015625,-0.5486855506896973,-2.6740169525146484
1731876980508.0,0.0,0.0,-20.0,0.0,0.0,0.0,0.0,0.0,0.0,0.0,0.0,0.0,0.0,0.0,0.0,0.0,-4.120936393737793,0.0,0.0,0.1613229364156723,0.0,-1214.9627685546875,-103.17265319824219,-16303.1669921875,28.163585662841797,1315.2110595703125,88.96595001220703,44.8536491394043,-0.08044236153364182,-2.847601890563965
1731876980524.0,0.0,0.0,-20.0,0.0,0.0,0.0,0.0,0.0,0.0,0.0,0.0,0.0,0.0,0.0,0.0,0.0,-3.9360733032226562,0.0,0.0,0.16178442537784576,0.0,-1209.2806396484375,93.79853820800781,-16412.748046875,59.089473724365234,1314.1142578125,12.029873847961426,45.379940032958984,0.06607333570718765,-3.4415342807769775
1731876980541.0,0.0,0.0,-20.0,0.0,0.0,0.0,0.0,0.0,0.0,0.0,0.0,0.0,0.0,0.0,0.0,0.0,-3.7506818771362305,0.0,0.0,0.16220131516456604,0.0,-1004.0264892578125,42.958045959472656,-16539.513671875,-7.024146556854248,1443.732421875,-5.634732246398926,45.50828552246094,-0.31286999583244324,-3.0798563957214355
1731876980591.0,0.0,0.0,-20.0,0.0,0.0,0.0,0.0,0.0,0.0,0.0,0.0,0.0,0.0,0.0,0.0,0.0,-3.3781392574310303,0.0,0.0,0.16318529844284058,0.0,-1149.95166015625,125.52543640136719,-16251.556640625,-146.08615112304688,1115.8017578125,35.95549392700195,44.752723693847656,-0.21937263011932373,-2.6831295490264893
1731876980608.0,0.0,0.0,-20.0,0.0,0.0,0.0,0.0,0.0,0.0,0.0,0.0,0.0,0.0,0.0,0.0,0.0,-3.1911423206329346,0.0,0.0,0.1634272038936615,0.0,-904.0753173828125,41.82067108154297,-16493.84375,-15.656526565551758,1120.5665283203125,17.214420318603516,44.47159957885742,0.030834626406431198,-2.592602491378784
1731876980624.0,0.0,0.0,-20.0,0.0,0.0,0.0,0.0,0.0,0.0,0.0,0.0,0.0,0.0,0.0,0.0,0.0,-3.003868341445923,0.0,0.0,0.16361835598945618,0.0,-981.641357421875,-62.03961944580078,-16557.681640625,115.90020751953125,1412.2503662109375,-62.32534408569336,44.97333908081055,0.4765956699848175,-2.2325856685638428
1731876980641.0,0.0,0.0,-20.0,0.0,0.0,0.0,0.0,0.0,0.0,0.0,0.0,0.0,0.0,0.0,0.0,0.0,-2.816375732421875,0.0,0.0,0.16376350820064545,0.0,-820.8740844726562,-17.949207305908203,-16219.8896484375,-109.9468002319336,1116.8687744140625,-124.92281341552734,45.32980728149414,-0.01788519136607647,-1.5673625469207764
1731876980674.0,0.0,0.0,-20.0,0.0,0.0,0.0,0.0,0.0,0.0,0.0,0.0,0.0,0.0,0.0,0.0,0.0,-2.6287167072296143,0.0,0.0,0.16392157971858978,0.0,-600.24072265625,102.40219116210938,-16298.279296875,31.373611450195312,1223.9483642578125,19.1285343170166,45.180145263671875,0.21823807060718536,-2.3148648738861084
1731876980708.0,0.0,0.0,-20.0,0.0,0.0,0.0,0.0,0.0,0.0,0.0,0.0,0.0,0.0,0.0,0.0,0.0,-2.2530245780944824,0.0,0.0,0.16389623284339905,0.0,-661.4960327148438,37.2955436706543,-16301.220703125,-72.51483917236328,1360.45849609375,-117.29998016357422,45.27967834472656,-0.22262267768383026,-1.8854248523712158
1731876980725.0,0.0,0.0,-20.0,0.0,0.0,0.0,0.0,0.0,0.0,0.0,0.0,0.0,0.0,0.0,0.0,0.0,-2.065213918685913,0.0,0.0,0.16381427645683289,0.0,-575.2464599609375,-62.383399963378906,-16350.9248046875,18.95448875427246,1322.6044921875,87.27865600585938,45.1037483215332,-0.009678389877080917,-1.2422834634780884
1731876980741.0,0.0,0.0,-20.0,0.0,0.0,0.0,0.0,0.0,0.0,0.0,0.0,0.0,0.0,0.0,0.0,0.0,-1.8774962425231934,0.0,0.0,0.16368913650512695,0.0,-305.189453125,-207.05819702148438,-16508.041015625,6.720537185668945,1200.716552734375,155.3063201904297,44.95722961425781,0.3401372730731964,-1.9041942358016968
1731876980774.0,0.0,0.0,-20.0,0.0,0.0,0.0,0.0,0.0,0.0,0.0,0.0,0.0,0.0,0.0,0.0,0.0,-1.6899223327636719,0.0,0.0,0.16330024600028992,0.0,-534.9637451171875,-87.79717254638672,-16395.515625,-31.016759872436523,1373.1580810546875,3992.705810546875,45.05398941040039,0.05853359401226044,-1.2812670469284058
1731876980791.0,0.0,0.0,-20.0,0.0,0.0,0.0,0.0,0.0,0.0,0.0,0.0,0.0,0.0,0.0,0.0,0.0,-1.502793788909912,0.0,0.0,0.16303882002830505,0.0,-379.869873046875,-97.83419036865234,-16306.80859375,64.2879867553711,1032.054443359375,-14.050623893737793,44.76390838623047,-0.16475336253643036,-1.3902775049209595
1731876980825.0,0.0,0.0,-20.0,0.0,0.0,0.0,0.0,0.0,0.0,0.0,0.0,0.0,0.0,0.0,0.0,0.0,-1.1294957399368286,0.0,0.0,0.1623702347278595,0.0,-406.9754638671875,-37.90483093261719,-16217.6806640625,-62.44835662841797,1066.6826171875,47.17692565917969,44.62035369873047,0.41789910197257996,-0.5943413376808167
1731876980825.0,0.0,0.0,-20.0,0.0,0.0,0.0,0.0,0.0,0.0,0.0,0.0,0.0,0.0,0.0,0.0,0.0,-1.1294957399368286,0.0,0.0,0.1623702347278595,0.0,-406.9754638671875,-37.90483093261719,-16217.6806640625,-62.44835662841797,1066.6826171875,47.17692565917969,44.62035369873047,0.41789910197257996,-0.5943413376808167
1731876980875.0,0.0,0.0,-20.0,0.0,0.0,0.0,0.0,0.0,0.0,0.0,0.0,0.0,0.0,0.0,0.0,0.0,-0.757825493812561,0.0,0.0,0.16103336215019226,0.0,-370.958251953125,222.28561401367188,-16311.5400390625,123.39685821533203,1014.5377197265625,50.952030181884766,44.72087097167969,-0.12109018862247467,-0.7960309982299805
1731876980891.0,0.0,0.0,-20.0,0.0,0.0,0.0,0.0,0.0,0.0,0.0,0.0,0.0,0.0,0.0,0.0,0.0,-0.5732948780059814,0.0,0.0,0.16050155460834503,0.0,-167.7551727294922,171.28924560546875,-16443.533203125,-80.91908264160156,1050.984619140625,-92.87564849853516,44.82876968383789,-0.3252542316913605,-0.2582301199436188
1731876980925.0,0.0,0.0,-20.0,0.0,0.0,0.0,0.0,0.0,0.0,0.0,0.0,0.0,0.0,0.0,0.0,0.0,-0.20612259209156036,0.0,0.0,0.15930067002773285,0.0,-113.9967041015625,-62.19095230102539,-16379.14453125,-84.4350814819336,1202.855224609375,18.577739715576172,44.81145477294922,0.2656005620956421,0.21014782786369324
1731876980925.0,0.0,0.0,-20.0,0.0,0.0,0.0,0.0,0.0,0.0,0.0,0.0,0.0,0.0,0.0,0.0,0.0,-0.20612259209156036,0.0,0.0,0.15930067002773285,0.0,-113.9967041015625,-62.19095230102539,-16379.14453125,-84.4350814819336,1202.855224609375,18.577739715576172,44.81145477294922,0.2656005620956421,0.21014782786369324
1731876980941.0,0.0,0.0,-20.0,0.0,0.0,0.0,0.0,0.0,0.0,0.0,0.0,0.0,0.0,0.0,0.0,0.0,-0.023577479645609856,0.0,0.0,0.15863633155822754,0.0,-76.07368469238281,21.968257904052734,-16517.068359375,-2.241760730743408,1021.427978515625,53.95930862426758,44.48505783081055,-0.3711094260215759,-0.04507894068956375
1731876980991.0,0.0,0.0,-20.0,0.0,0.0,0.0,0.0,0.0,0.0,0.0,0.0,0.0,0.0,0.0,0.0,0.0,0.33831787109375,0.0,0.0,0.15636374056339264,0.0,161.78793334960938,-58.81813049316406,-16289.669921875,-79.45822143554688,1273.0213623046875,-18.786958694458008,45.271018981933594,0.4911540150642395,-0.029325276613235474
1731876981008.0,0.0,0.0,-20.0,0.0,0.0,0.0,0.0,0.0,0.0,0.0,0.0,0.0,0.0,0.0,0.0,0.0,0.517486572265625,0.0,0.0,0.15552477538585663,0.0,111.69986724853516,-90.97478485107422,-16405.21875,8.514124870300293,1117.4404296875,-28.14929962158203,45.075687408447266,0.13418903946876526,0.6946606636047363
1731876981025.0,0.0,0.0,-20.0,0.0,0.0,0.0,0.0,0.0,0.0,0.0,0.0,0.0,0.0,0.0,0.0,0.0,0.695709228515625,0.0,0.0,0.15463632345199585,0.0,217.6389923095703,-181.92770385742188,-16310.8427734375,15.482890129089355,1307.8504638671875,42.92971420288086,44.764156341552734,-0.2499844878911972,0.5923615097999573
1731876981041.0,0.0,0.0,-20.0,0.0,0.0,0.0,0.0,0.0,0.0,0.0,0.0,0.0,0.0,0.0,0.0,0.0,0.872894287109375,0.0,0.0,0.15370459854602814,0.0,381.96893310546875,48.72658157348633,-16353.1591796875,-21.809680938720703,1082.3681640625,-10.046103477478027,45.45686721801758,0.03842761740088463,0.7347227334976196
1731876981092.0,0.0,0.0,-20.0,0.0,0.0,0.0,0.0,0.0,0.0,0.0,0.0,0.0,0.0,0.0,0.0,0.0,1.222869873046875,0.0,0.0,0.15066054463386536,0.0,322.7812194824219,30.788002014160156,-16365.283203125,46.095001220703125,1013.2538452148438,23.41010856628418,45.00688552856445,0.1057000607252121,0.768928050994873
1731876981108.0,0.0,0.0,-20.0,0.0,0.0,0.0,0.0,0.0,0.0,0.0,0.0,0.0,0.0,0.0,0.0,0.0,1.395538330078125,0.0,0.0,0.14956706762313843,0.0,497.4750061035156,12.275907516479492,-16627.76953125,-3967.249267578125,1306.740234375,7.662876605987549,44.828739166259766,-0.4860261082649231,0.975688636302948
1731876981125.0,0.0,0.0,-20.0,0.0,0.0,0.0,0.0,0.0,0.0,0.0,0.0,0.0,0.0,0.0,0.0,0.0,1.566925048828125,0.0,0.0,0.14842386543750763,0.0,609.4638671875,33.167964935302734,-16426.22265625,56.24598693847656,1114.9505615234375,10.675786018371582,44.904296875,0.015401793643832207,1.1663305759429932
1731876981142.0,0.0,0.0,-20.0,0.0,0.0,0.0,0.0,0.0,0.0,0.0,0.0,0.0,0.0,0.0,0.0,0.0,1.73699951171875,0.0,0.0,0.14723916351795197,0.0,448.94256591796875,-77.07755279541016,-16423.56640625,-9.382551193237305,909.6725463867188,120.17671966552734,44.44078826904297,-0.08231770247220993,1.8208239078521729
1731876981175.0,0.0,0.0,-20.0,0.0,0.0,0.0,0.0,0.0,0.0,0.0,0.0,0.0,0.0,0.0,0.0,0.0,1.905731201171875,0.0,0.0,0.1447465568780899,0.0,450.4935607910156,113.37606811523438,-16296.9501953125,-101.3392333984375,1021.4927368164062,0.3021450340747833,45.428768157958984,0.044696830213069916,2.0264854431152344
1731876981208.0,0.0,0.0,-20.0,0.0,0.0,0.0,0.0,0.0,0.0,0.0,0.0,0.0,0.0,0.0,0.0,0.0,2.2359619140625,0.0,0.0,0.14210203289985657,0.0,548.7188720703125,75.8836669921875,-16454.333984375,-21.9564151763916,955.7600708007812,-50.284732818603516,44.92380905151367,0.447199285030365,2.232084035873413
1731876981225.0,0.0,0.0,-20.0,0.0,0.0,0.0,0.0,0.0,0.0,0.0,0.0,0.0,0.0,0.0,0.0,0.0,2.3988037109375,0.0,0.0,0.14070498943328857,0.0,657.6681518554688,23.930492401123047,-16446.671875,-45.02678298950195,1139.507080078125,-140.7379913330078,45.150352478027344,-0.09798704087734222,2.1720564365386963
1731876981242.0,0.0,0.0,-20.0,0.0,0.0,0.0,0.0,0.0,0.0,0.0,0.0,0.0,0.0,0.0,0.0,0.0,2.560028076171875,0.0,0.0,0.13928914070129395,0.0,822.461669921875,61.84939193725586,-16415.41015625,67.66089630126953,1022.6100463867188,-8.45480728149414,45.00189208984375,-0.1752939373254776,1.6284546852111816
1731876981275.0,0.0,0.0,-20.0,0.0,0.0,0.0,0.0,0.0,0.0,0.0,0.0,0.0,0.0,0.0,0.0,0.0,2.719635009765625,0.0,0.0,0.13634265959262848,0.0,830.6231689453125,6.922684669494629,-16391.0859375,53.24385452270508,840.4974365234375,72.22554016113281,44.39096450805664,-0.29329144954681396,1.7855103015899658
1731876981309.0,0.0,0.0,-20.0,0.0,0.0,0.0,0.0,0.0,0.0,0.0,0.0,0.0,0.0,0.0,0.0,0.0,3.030364990234375,0.0,0.0,0.1332109123468399,0.0,815.6812744140625,203.3775177001953,-16609.37890625,-117.0077896118164,897.538818359375,-84.756103515625,45.007259368896484,0.1558343470096588,2.0677547454833984
1731876981325.0,0.0,0.0,-20.0,0.0,0.0,0.0,0.0,0.0,0.0,0.0,0.0,0.0,0.0,0.0,0.0,0.0,3.183013916015625,0.0,0.0,0.13160642981529236,0.0,1058.7161865234375,-63.96720504760742,-16503.587890625,-28.432113647460938,969.0413818359375,44.855472564697266,45.20191192626953,-0.7344962954521179,2.714071750640869
1731876981325.0,0.0,0.0,-20.0,0.0,0.0,0.0,0.0,0.0,0.0,0.0,0.0,0.0,0.0,0.0,0.0,0.0,3.183013916015625,0.0,0.0,0.13160642981529236,0.0,1058.7161865234375,-63.96720504760742,-16503.587890625,-28.432113647460938,969.0413818359375,44.855472564697266,45.20191192626953,-0.7344962954521179,2.714071750640869
1731876981375.0,0.0,0.0,-20.0,0.0,0.0,0.0,0.0,0.0,0.0,0.0,0.0,0.0,0.0,0.0,0.0,0.0,3.48272705078125,0.0,0.0,0.1265389770269394,0.0,1007.523193359375,104.23741912841797,-16285.3017578125,109.88849639892578,1156.8563232421875,-22.08384132385254,44.70137405395508,0.8600854277610779,2.830145835876465
1731876981392.0,0.0,0.0,-20.0,0.0,0.0,0.0,0.0,0.0,0.0,0.0,0.0,0.0,0.0,0.0,0.0,0.0,3.62774658203125,0.0,0.0,0.12477841228246689,0.0,860.3115234375,-52.83137130737305,-16512.68359375,65.66683197021484,977.9615478515625,-68.63876342773438,44.720760345458984,0.22545449435710907,2.9845972061157227
1731876981425.0,0.0,0.0,-20.0,0.0,0.0,0.0,0.0,0.0,0.0,0.0,0.0,0.0,0.0,0.0,0.0,0.0,3.91168212890625,0.0,0.0,0.12116657197475433,0.0,902.381103515625,101.21685791015625,-16475.826171875,-37.65519332885742,910.6845092773438,175.86212158203125,44.900794982910156,0.6601114869117737,2.8790266513824463
1731876981425.0,0.0,0.0,-20.0,0.0,0.0,0.0,0.0,0.0,0.0,0.0,0.0,0.0,0.0,0.0,0.0,0.0,3.91168212890625,0.0,0.0,0.12116657197475433,0.0,902.381103515625,101.21685791015625,-16475.826171875,-37.65519332885742,910.6845092773438,175.86212158203125,44.900794982910156,0.6601114869117737,2.8790266513824463
1731876981475.0,0.0,0.0,-20.0,0.0,0.0,0.0,0.0,0.0,0.0,0.0,0.0,0.0,0.0,0.0,0.0,0.0,4.187255859375,0.0,0.0,0.11551912128925323,0.0,1042.818359375,204.84817504882812,-16346.7685546875,34.258575439453125,826.564453125,-88.74288177490234,44.55564498901367,-0.14736154675483704,3.061675786972046
1731876981492.0,0.0,0.0,-20.0,0.0,0.0,0.0,0.0,0.0,0.0,0.0,0.0,0.0,0.0,0.0,0.0,0.0,4.319610595703125,0.0,0.0,0.11355782300233841,0.0,1222.5113525390625,-162.3841094970703,-16328.607421875,71.37818908691406,921.467529296875,-20.61385726928711,45.197505950927734,-0.35077306628227234,3.4243199825286865
1731876981525.0,0.0,0.0,-20.0,0.0,0.0,0.0,0.0,0.0,0.0,0.0,0.0,0.0,0.0,0.0,0.0,0.0,4.577606201171875,0.0,0.0,0.10954052209854126,0.0,1191.4427490234375,52.80768585205078,-16319.7431640625,-77.27135467529297,739.8447265625,-26.669034957885742,44.73629379272461,0.13072559237480164,3.862447500228882
1731876981525.0,0.0,0.0,-20.0,0.0,0.0,0.0,0.0,0.0,0.0,0.0,0.0,0.0,0.0,0.0,0.0,0.0,4.577606201171875,0.0,0.0,0.10954052209854126,0.0,1191.4427490234375,52.80768585205078,-16319.7431640625,-77.27135467529297,739.8447265625,-26.669034957885742,44.73629379272461,0.13072559237480164,3.862447500228882
1731876981576.0,0.0,0.0,-20.0,0.0,0.0,0.0,0.0,0.0,0.0,0.0,0.0,0.0,0.0,0.0,0.0,0.0,4.8262939453125,0.0,0.0,0.10330179333686829,0.0,1280.3641357421875,-10.844389915466309,-16280.5185546875,-3.9080810546875,883.5100708007812,-74.93055725097656,44.754146575927734,-0.45184722542762756,4.162537097930908
1731876981592.0,0.0,0.0,-20.0,0.0,0.0,0.0,0.0,0.0,0.0,0.0,0.0,0.0,0.0,0.0,0.0,0.0,4.944671630859375,0.0,0.0,0.10115869343280792,0.0,1426.67333984375,35.130348205566406,-16406.12890625,67.96011352539062,676.5755004882812,63.70042037963867,45.28549575805664,-0.010901556350290775,3.840270757675171
1731876981609.0,0.0,0.0,-20.0,0.0,0.0,0.0,0.0,0.0,0.0,0.0,0.0,0.0,0.0,0.0,0.0,0.0,5.06060791015625,0.0,0.0,0.09900324791669846,0.0,1496.335205078125,-129.99317932128906,-16294.525390625,-39.484344482421875,812.9171752929688,21.87997817993164,44.819679260253906,0.28853967785835266,3.822596311569214
1731876981626.0,0.0,0.0,-20.0,0.0,0.0,0.0,0.0,0.0,0.0,0.0,0.0,0.0,0.0,0.0,0.0,0.0,5.174041748046875,0.0,0.0,0.09680436551570892,0.0,1680.788330078125,-24.981029510498047,-16261.708984375,-46.99692153930664,506.0592346191406,-160.58750915527344,45.0534782409668,0.6321545839309692,3.6672487258911133
1731876981642.0,0.0,0.0,-20.0,0.0,0.0,0.0,0.0,0.0,0.0,0.0,0.0,0.0,0.0,0.0,0.0,0.0,5.28497314453125,0.0,0.0,0.09459475427865982,0.0,1419.68310546875,-9.84954833984375,-16341.9072265625,-31.269241333007812,753.169921875,30.605247497558594,44.93827819824219,-0.37327802181243896,3.8399739265441895
1731876981692.0,0.0,0.0,-20.0,0.0,0.0,0.0,0.0,0.0,0.0,0.0,0.0,0.0,0.0,0.0,0.0,0.0,5.496612548828125,0.0,0.0,0.08779507130384445,0.0,1504.4532470703125,-87.00782012939453,-16423.94140625,68.1224594116211,565.62548828125,-9.488571166992188,44.850921630859375,0.15358711779117584,4.180372714996338
1731876981709.0,0.0,0.0,-20.0,0.0,0.0,0.0,0.0,0.0,0.0,0.0,0.0,0.0,0.0,0.0,0.0,0.0,5.59722900390625,0.0,0.0,0.08548473566770554,0.0,1562.7406005859375,97.67585754394531,-16159.9873046875,-29.129602432250977,546.5989990234375,64.99453735351562,45.27362823486328,-0.2875658869743347,4.384362697601318
1731876981726.0,0.0,0.0,-20.0,0.0,0.0,0.0,0.0,0.0,0.0,0.0,0.0,0.0,0.0,0.0,0.0,0.0,5.6951904296875,0.0,0.0,0.08311633765697479,0.0,1459.18505859375,-167.6692657470703,-16415.58203125,-37.25355529785156,594.8970336914062,44.134464263916016,44.59196472167969,-0.13644535839557648,4.535303115844727
1731876981742.0,0.0,0.0,-20.0,0.0,0.0,0.0,0.0,0.0,0.0,0.0,0.0,0.0,0.0,0.0,0.0,0.0,5.790435791015625,0.0,0.0,0.08075918257236481,0.0,1580.90087890625,-99.60037994384766,-16138.9189453125,61.63584899902344,587.1810302734375,-56.88352966308594,44.809669494628906,0.4803887903690338,4.586703300476074
1731876981776.0,0.0,0.0,-20.0,0.0,0.0,0.0,0.0,0.0,0.0,0.0,0.0,0.0,0.0,0.0,0.0,0.0,5.882965087890625,0.0,0.0,0.07590781897306442,0.0,1610.590087890625,231.32373046875,-16503.46484375,-92.85052490234375,501.720458984375,-8.599648475646973,44.889556884765625,0.04796343296766281,5.013334274291992
1731876981809.0,0.0,0.0,-20.0,0.0,0.0,0.0,0.0,0.0,0.0,0.0,0.0,0.0,0.0,0.0,0.0,0.0,6.05419921875,0.0,0.0,0.07107851654291153,0.0,1555.857421875,-69.11907196044922,-16365.2158203125,-71.40985870361328,440.2654113769531,-85.2326431274414,44.292991638183594,-0.10192856192588806,5.209395408630371
1731876981825.0,0.0,0.0,-20.0,0.0,0.0,0.0,0.0,0.0,0.0,0.0,0.0,0.0,0.0,0.0,0.0,0.0,6.135650634765625,0.0,0.0,0.06861640512943268,0.0,1641.7886962890625,-15.028982162475586,-16183.7529296875,30.809017181396484,523.9840087890625,-79.11392211914062,44.31200408935547,-0.16211916506290436,4.402952671051025
1731876981825.0,0.0,0.0,-20.0,0.0,0.0,0.0,0.0,0.0,0.0,0.0,0.0,0.0,0.0,0.0,0.0,0.0,6.135650634765625,0.0,0.0,0.06861640512943268,0.0,1641.7886962890625,-15.028982162475586,-16183.7529296875,30.809017181396484,523.9840087890625,-79.11392211914062,44.31200408935547,-0.16211916506290436,4.402952671051025
1731876981875.0,0.0,0.0,-20.0,0.0,0.0,0.0,0.0,0.0,0.0,0.0,0.0,0.0,0.0,0.0,0.0,0.0,6.290069580078125,0.0,0.0,0.06106364727020264,0.0,1813.32861328125,22.252553939819336,-16286.52734375,-105.90591430664062,337.4067687988281,64.44456481933594,44.56732177734375,0.3659697473049164,5.441580772399902
1731876981892.0,0.0,0.0,-20.0,0.0,0.0,0.0,0.0,0.0,0.0,0.0,0.0,0.0,0.0,0.0,0.0,0.0,6.36004638671875,0.0,0.0,0.05852965638041496,0.0,1772.904296875,11.466833114624023,-16197.9638671875,-27.97705841064453,509.5274658203125,86.24906921386719,44.88927459716797,0.020066451281309128,5.242189407348633
1731876981925.0,0.0,0.0,-20.0,0.0,0.0,0.0,0.0,0.0,0.0,0.0,0.0,0.0,0.0,0.0,0.0,0.0,6.491241455078125,0.0,0.0,0.05341397598385811,0.0,1876.7496337890625,-206.71734619140625,-16340.47265625,94.27137756347656,347.7891540527344,-31.50019645690918,44.57500076293945,0.051570188254117966,5.527976989746094
1731876981925.0,0.0,0.0,-20.0,0.0,0.0,0.0,0.0,0.0,0.0,0.0,0.0,0.0,0.0,0.0,0.0,0.0,6.491241455078125,0.0,0.0,0.05341397598385811,0.0,1876.7496337890625,-206.71734619140625,-16340.47265625,94.27137756347656,347.7891540527344,-31.50019645690918,44.57500076293945,0.051570188254117966,5.527976989746094
1731876981942.0,0.0,0.0,-20.0,0.0,0.0,0.0,0.0,0.0,0.0,0.0,0.0,0.0,0.0,0.0,0.0,0.0,6.552459716796875,0.0,0.0,0.05073856562376022,0.0,2125.55322265625,-44.751060485839844,-16444.45703125,-36.18144989013672,363.812255859375,22.56751251220703,44.492515563964844,0.39222466945648193,5.008296489715576
1731876981992.0,0.0,0.0,-20.0,0.0,0.0,0.0,0.0,0.0,0.0,0.0,0.0,0.0,0.0,0.0,0.0,0.0,6.66278076171875,0.0,0.0,0.042895812541246414,0.0,2076.634521484375,103.38690948486328,-16135.4775390625,-8.896596908569336,244.96351623535156,-49.71461868286133,44.801300048828125,-0.10956469923257828,5.259525299072266
1731876982009.0,0.0,0.0,-20.0,0.0,0.0,0.0,0.0,0.0,0.0,0.0,0.0,0.0,0.0,0.0,0.0,0.0,6.7119140625,0.0,0.0,0.04028269276022911,0.0,1812.486083984375,104.884033203125,-16415.53125,-73.62625885009766,343.37591552734375,41.73945999145508,44.52924728393555,-0.006103056017309427,5.457475185394287
1731876982026.0,0.0,0.0,-20.0,0.0,0.0,0.0,0.0,0.0,0.0,0.0,0.0,0.0,0.0,0.0,0.0,0.0,6.758087158203125,0.0,0.0,0.03761968016624451,0.0,1931.589111328125,-218.76072692871094,-16478.146484375,95.74909210205078,216.21917724609375,85.54914093017578,44.734256744384766,-0.47290095686912537,5.483292579650879
1731876982042.0,0.0,0.0,-20.0,0.0,0.0,0.0,0.0,0.0,0.0,0.0,0.0,0.0,0.0,0.0,0.0,0.0,6.80120849609375,0.0,0.0,0.03492660075426102,0.0,1878.658203125,-2.6883716583251953,-16317.345703125,67.57024383544922,190.7928009033203,6.449082851409912,45.13019561767578,0.19063638150691986,5.14243745803833
1731876982092.0,0.0,0.0,-20.0,0.0,0.0,0.0,0.0,0.0,0.0,0.0,0.0,0.0,0.0,0.0,0.0,0.0,6.875091552734375,0.0,0.0,0.026909397915005684,0.0,2020.609130859375,70.16197204589844,-16291.4541015625,-166.4888458251953,296.0262145996094,19.40535545349121,44.828346252441406,0.01169112604111433,5.638864040374756
1731876982109.0,0.0,0.0,-20.0,0.0,0.0,0.0,0.0,0.0,0.0,0.0,0.0,0.0,0.0,0.0,0.0,0.0,6.90594482421875,0.0,0.0,0.024122215807437897,0.0,1897.508056640625,-43.061561584472656,-16303.673828125,28.6767635345459,280.44537353515625,-141.71630859375,45.03874206542969,-0.3251761198043823,5.236936092376709
1731876982126.0,0.0,0.0,-20.0,0.0,0.0,0.0,0.0,0.0,0.0,0.0,0.0,0.0,0.0,0.0,0.0,0.0,6.93359375,0.0,0.0,0.021466773003339767,0.0,1981.52734375,-62.203914642333984,-16358.021484375,56.595542907714844,115.3847427368164,-60.97831344604492,44.812801361083984,0.42069751024246216,5.3779988288879395
1731876982143.0,0.0,0.0,-20.0,0.0,0.0,0.0,0.0,0.0,0.0,0.0,0.0,0.0,0.0,0.0,0.0,0.0,6.95819091796875,0.0,0.0,0.018745943903923035,0.0,1958.8297119140625,-59.35866165161133,-16367.4990234375,-19.47588348388672,201.7064208984375,-15.968117713928223,44.477481842041016,0.433393657207489,5.487277030944824
1731876982193.0,0.0,0.0,-20.0,0.0,0.0,0.0,0.0,0.0,0.0,0.0,0.0,0.0,0.0,0.0,0.0,0.0,6.994873046875,0.0,0.0,0.010594992898404598,0.0,2025.4859619140625,-4.54671573638916,-16178.9189453125,-11.43509578704834,-30.246875762939453,33.03874588012695,43.90639114379883,0.2778175473213196,5.03292179107666
1731876982209.0,0.0,0.0,-20.0,0.0,0.0,0.0,0.0,0.0,0.0,0.0,0.0,0.0,0.0,0.0,0.0,0.0,7.00701904296875,0.0,0.0,0.00783782359212637,0.0,1825.310546875,92.24760437011719,-16280.7587890625,46.36528778076172,-31.238004684448242,-72.15210723876953,44.73420333862305,-0.23112547397613525,5.516972064971924
1731876982226.0,0.0,0.0,-20.0,0.0,0.0,0.0,0.0,0.0,0.0,0.0,0.0,0.0,0.0,0.0,0.0,0.0,7.016021728515625,0.0,0.0,0.00507842842489481,0.0,2168.346923828125,76.81504821777344,-16257.3466796875,52.907657623291016,68.74567413330078,-37.820762634277344,44.542083740234375,0.19888857007026672,6.114297389984131
1731876982243.0,0.0,0.0,-20.0,0.0,0.0,0.0,0.0,0.0,0.0,0.0,0.0,0.0,0.0,0.0,0.0,0.0,7.021820068359375,0.0,0.0,0.0023576111998409033,0.0,1986.027099609375,-23.221994400024414,-16365.966796875,60.44386291503906,-20.747472763061523,-45.2889518737793,44.73757553100586,-0.24843250215053558,5.213076114654541
1731876982276.0,0.0,0.0,-20.0,0.0,0.0,0.0,0.0,0.0,0.0,0.0,0.0,0.0,0.0,0.0,0.0,0.0,7.0245361328125,0.0,0.0,-0.0030852225609123707,0.0,1938.3914794921875,-204.32862854003906,-16280.7666015625,-21.171489715576172,-13.51616382598877,-28.545862197875977,44.102928161621094,0.6615244746208191,5.332041263580322
1731876982310.0,0.0,0.0,-20.0,0.0,0.0,0.0,0.0,0.0,0.0,0.0,0.0,0.0,0.0,0.0,0.0,0.0,7.01434326171875,0.0,0.0,-0.00856462400406599,0.0,1853.64501953125,-184.136962890625,-16241.7177734375,-41.17985916137695,-49.80996322631836,27.21222686767578,44.60154724121094,-0.06394222378730774,5.588169097900391
1731876982326.0,0.0,0.0,-20.0,0.0,0.0,0.0,0.0,0.0,0.0,0.0,0.0,0.0,0.0,0.0,0.0,0.0,7.0045166015625,0.0,0.0,-0.011301114223897457,0.0,1979.7867431640625,-13.029821395874023,-16268.9970703125,10.322999954223633,-55.2586669921875,-26.532323837280273,44.441097259521484,-0.3426899015903473,5.565620422363281
1731876982343.0,0.0,0.0,-20.0,0.0,0.0,0.0,0.0,0.0,0.0,0.0,0.0,0.0,0.0,0.0,0.0,0.0,6.9915771484375,0.0,0.0,-0.014034444466233253,0.0,2040.162109375,-138.21644592285156,-16141.2724609375,-82.65860748291016,-73.22455596923828,38.538822174072266,44.98070526123047,0.06620363891124725,5.241973400115967
1731876982376.0,0.0,0.0,-20.0,0.0,0.0,0.0,0.0,0.0,0.0,0.0,0.0,0.0,0.0,0.0,0.0,0.0,6.975494384765625,0.0,0.0,-0.019428955391049385,0.0,1864.1641845703125,-107.1374740600586,-16324.16015625,21.867258071899414,-67.02110290527344,-32.025081634521484,44.41472625732422,-0.5973953604698181,4.729031562805176
1731876982410.0,0.0,0.0,-20.0,0.0,0.0,0.0,0.0,0.0,0.0,0.0,0.0,0.0,0.0,0.0,0.0,0.0,6.927825927734375,0.0,0.0,-0.024881327524781227,0.0,2014.40185546875,123.36271667480469,-16340.2568359375,28.58037567138672,-223.82383728027344,42.468177795410156,44.78605651855469,0.018642473965883255,5.2719902992248535
1731876982426.0,0.0,0.0,-20.0,0.0,0.0,0.0,0.0,0.0,0.0,0.0,0.0,0.0,0.0,0.0,0.0,0.0,6.899322509765625,0.0,0.0,-0.027587519958615303,0.0,1936.750244140625,30.9647159576416,-16295.0341796875,-11.830241203308105,-199.0424041748047,34.42255783081055,44.1591682434082,-0.1349446177482605,5.4404296875
1731876982443.0,0.0,0.0,-20.0,0.0,0.0,0.0,0.0,0.0,0.0,0.0,0.0,0.0,0.0,0.0,0.0,0.0,6.867706298828125,0.0,0.0,-0.030266329646110535,0.0,1993.1502685546875,40.12103271484375,-16008.9521484375,-48.8863639831543,-177.27261352539062,-56.04816818237305,44.99477767944336,-0.06806565076112747,5.7655348777771
1731876982476.0,0.0,0.0,-20.0,0.0,0.0,0.0,0.0,0.0,0.0,0.0,0.0,0.0,0.0,0.0,0.0,0.0,6.8330078125,0.0,0.0,-0.03561772406101227,0.0,1826.9542236328125,-149.94924926757812,-16285.7138671875,33.10218811035156,-221.87554931640625,-27.126691818237305,44.57954025268555,-0.20186147093772888,4.54885721206665
1731876982493.0,0.0,0.0,-20.0,0.0,0.0,0.0,0.0,0.0,0.0,0.0,0.0,0.0,0.0,0.0,0.0,0.0,6.792205810546875,0.0,0.0,-0.03826922923326492,0.0,1865.73388671875,-23.891653060913086,-16360.4501953125,-16.38053321838379,-223.5455780029297,-70.85799407958984,45.10356521606445,0.1557588130235672,5.534428119659424
1731876982526.0,0.0,0.0,-20.0,0.0,0.0,0.0,0.0,0.0,0.0,0.0,0.0,0.0,0.0,0.0,0.0,0.0,6.70147705078125,0.0,0.0,-0.0435398668050766,0.0,1983.489013671875,-28.70252227783203,-16270.697265625,186.95530700683594,-377.2933044433594,129.8477020263672,44.428897857666016,-0.050215788185596466,4.9118146896362305
1731876982526.0,0.0,0.0,-20.0,0.0,0.0,0.0,0.0,0.0,0.0,0.0,0.0,0.0,0.0,0.0,0.0,0.0,6.70147705078125,0.0,0.0,-0.0435398668050766,0.0,1983.489013671875,-28.70252227783203,-16270.697265625,186.95530700683594,-377.2933044433594,129.8477020263672,44.428897857666016,-0.050215788185596466,4.9118146896362305
1731876982576.0,0.0,0.0,-20.0,0.0,0.0,0.0,0.0,0.0,0.0,0.0,0.0,0.0,0.0,0.0,0.0,0.0,6.59869384765625,0.0,0.0,-0.05135403573513031,0.0,1809.545166015625,-123.13639831542969,-16351.2978515625,89.68289947509766,-388.16278076171875,12.373237609863281,45.1212158203125,0.13378852605819702,4.805476188659668
1731876982593.0,0.0,0.0,-20.0,0.0,0.0,0.0,0.0,0.0,0.0,0.0,0.0,0.0,0.0,0.0,0.0,0.0,6.539825439453125,0.0,0.0,-0.05398809164762497,0.0,1640.125244140625,1.005753755569458,-16213.681640625,113.72093200683594,-321.03594970703125,24.944955825805664,44.60404968261719,-0.49133923649787903,5.526540756225586
1731876982609.0,0.0,0.0,-20.0,0.0,0.0,0.0,0.0,0.0,0.0,0.0,0.0,0.0,0.0,0.0,0.0,0.0,6.47796630859375,0.0,0.0,-0.056569043546915054,0.0,1791.2962646484375,-108.29460144042969,-16256.537109375,-6.620251655578613,-334.512939453125,-12.113849639892578,45.046295166015625,0.054887499660253525,5.413965225219727
1731876982626.0,0.0,0.0,-20.0,0.0,0.0,0.0,0.0,0.0,0.0,0.0,0.0,0.0,0.0,0.0,0.0,0.0,6.41314697265625,0.0,0.0,-0.05913417413830757,0.0,1751.59765625,-20.39310073852539,-16300.6767578125,8.987564086914062,-517.9301147460938,-82.52571105957031,45.24636459350586,0.19595873355865479,4.620083808898926
1731876982643.0,0.0,0.0,-20.0,0.0,0.0,0.0,0.0,0.0,0.0,0.0,0.0,0.0,0.0,0.0,0.0,0.0,6.34539794921875,0.0,0.0,-0.06166422739624977,0.0,1835.3104248046875,-97.87651062011719,-16169.896484375,39.76955795288086,-562.5826416015625,30.04952621459961,44.6348762512207,-0.38737791776657104,5.039384841918945
