ts,linPos_x,linPos_y,linPos_z,linVel_x,linVel_y,linVel_z,linAcc_x,linAcc_y,linAcc_z,force_x,force_y,force_z,torque_x,torque_y,torque_z,euler_x,euler_y,euler_z,angVel_x,angVel_y,angVel_z,accelerometer_x,accelerometer_y,accelerometer_z,gyroscope_x,gyroscope_y,gyroscope_z,magnetometer_x,magnetometer_y,magnetometer_z
1731876816419.0,0.0,0.0,-20.0,0.0,0.0,0.0,0.0,0.0,0.0,0.0,0.0,0.0,0.0,0.0,0.0,0.0,0.0,0.0,0.0,0.0,0.0,160.728759765625,-163.2562255859375,-16203.2412109375,27.584562301635742,-30.678640365600586,70.11324310302734,44.567596435546875,-0.025044012814760208,-0.20865270495414734
1731876816453.0,0.0,0.0,-20.0,0.0,0.0,0.0,0.0,0.0,0.0,0.0,0.0,0.0,0.0,0.0,0.0,0.0,0.0,0.0,0.0,0.0,0.0,-104.38113403320312,-145.6220245361328,-16390.119140625,89.64752197265625,62.31272888183594,-2.514846086502075,44.902610778808594,-0.017933616414666176,-0.010721540078520775
1731876816470.0,0.0,0.0,-20.0,0.0,0.0,0.0,0.0,0.0,0.0,0.0,0.0,0.0,0.0,0.0,0.0,0.0,0.0,0.0,0.0,0.0,0.0,64.22953033447266,-183.70005798339844,-16432.17578125,29.249042510986328,-16.255037307739258,17.77604866027832,44.956634521484375,0.029666895046830177,0.04696078598499298
1731876816470.0,0.0,0.0,-20.0,0.0,0.0,0.0,0.0,0.0,0.0,0.0,0.0,0.0,0.0,0.0,0.0,0.0,0.0,0.0,0.0,0.0,0.0,64.22953033447266,-183.70005798339844,-16432.17578125,29.249042510986328,-16.255037307739258,17.77604866027832,44.956634521484375,0.029666895046830177,0.04696078598499298
1731876816520.0,0.0,0.0,-20.0,0.0,0.0,0.0,0.0,0.0,0.0,0.0,0.0,0.0,0.0,0.0,0.0,0.0,0.0,0.0,0.0,0.0,0.0,-107.08438873291016,-66.8988265991211,-16521.990234375,2.700272798538208,0.18154029548168182,36.58980178833008,44.60076141357422,0.16783371567726135,0.49614518880844116
1731876816536.0,0.0,0.0,-20.0,0.0,0.0,0.0,0.0,0.0,0.0,0.0,0.0,0.0,0.0,0.0,0.0,0.0,0.0,0.0,0.0,0.0,0.0,32.2916259765625,-132.5080108642578,-16269.380859375,13.160005569458008,-49.64813995361328,43.912723541259766,44.929290771484375,-0.2786307632923126,0.052009470760822296
1731876816570.0,0.0,0.0,-20.0,0.0,0.0,0.0,0.0,0.0,0.0,0.0,0.0,0.0,0.0,0.0,0.0,0.0,0.0,0.0,0.0,0.0,0.0,-15.936423301696777,38.419944763183594,-16433.189453125,-89.59696197509766,1.6235672235488892,-0.5473399758338928,44.76181411743164,0.3620492219924927,-0.12481318414211273
1731876816570.0,0.0,0.0,-20.0,0.0,0.0,0.0,0.0,0.0,0.0,0.0,0.0,0.0,0.0,0.0,0.0,0.0,0.0,0.0,0.0,0.0,0.0,-15.936423301696777,38.419944763183594,-16433.189453125,-89.59696197509766,1.6235672235488892,-0.5473399758338928,44.76181411743164,0.3620492219924927,-0.12481318414211273
1731876816620.0,0.0,0.0,-20.0,0.0,0.0,0.0,0.0,0.0,0.0,0.0,0.0,0.0,0.0,0.0,0.0,0.0,0.0,0.0,0.0,0.0,0.0,13.25744342803955,218.12155151367188,-16550.05859375,143.25482177734375,37.219154357910156,36.71585464477539,44.31926727294922,0.25440141558647156,0.25175002217292786
1731876816637.0,0.0,0.0,-20.0,0.0,0.0,0.0,0.0,0.0,0.0,0.0,0.0,0.0,0.0,0.0,0.0,0.0,0.0,0.0,0.0,0.0,0.0,136.0694122314453,-43.465274810791016,-16336.755859375,-1.2472169399261475,-9.374571800231934,37.494163513183594,44.60408020019531,-0.33929866552352905,0.19457879662513733
1731876816670.0,0.0,0.0,-20.0,0.0,0.0,0.0,0.0,0.0,0.0,0.0,0.0,0.0,0.0,0.0,0.0,0.0,0.0,0.0,0.0,0.0,0.0,-49.86433792114258,84.49931335449219,-16450.900390625,-75.80270385742188,-147.30596923828125,-3.1587629318237305,44.617122650146484,0.030579648911952972,-0.0850159227848053
1731876816670.0,0.0,0.0,-20.0,0.0,0.0,0.0,0.0,0.0,0.0,0.0,0.0,0.0,0.0,0.0,0.0,0.0,0.0,0.0,0.0,0.0,0.0,-49.86433792114258,84.49931335449219,-16450.900390625,-75.80270385742188,-147.30596923828125,-3.1587629318237305,44.617122650146484,0.030579648911952972,-0.0850159227848053
1731876816687.0,0.0,0.0,-20.0,0.0,0.0,0.0,0.0,0.0,0.0,0.0,0.0,0.0,0.0,0.0,0.0,0.0,0.0,0.0,0.0,0.0,0.0,5.780200004577637,-158.57875061035156,-16483.998046875,62.91605758666992,74.54776763916016,-15.036705017089844,44.89723587036133,0.06447426974773407,-0.3737947642803192
1731876816737.0,0.0,0.0,-20.0,0.0,0.0,0.0,0.0,0.0,0.0,0.0,0.0,0.0,0.0,0.0,0.0,0.0,0.0,0.0,0.0,0.0,0.0,-2.8983075618743896,118.98088073730469,-16308.455078125,59.64402389526367,30.7413330078125,0.6521672010421753,44.80306625366211,0.19811396300792694,0.11261232942342758
1731876816753.0,0.0,0.0,-20.0,0.0,0.0,0.0,0.0,0.0,0.0,0.0,0.0,0.0,0.0,0.0,0.0,0.0,0.0,0.0,0.0,0.0,0.0,31.124176025390625,-107.46016693115234,-16320.9228515625,-49.53363800048828,83.66746520996094,84.99647521972656,45.4157600402832,-0.3430109918117523,0.23708927631378174
1731876816770.0,0.0,0.0,-20.0,0.0,0.0,0.0,0.0,0.0,0.0,0.0,0.0,0.0,0.0,0.0,0.0,0.0,0.0,0.0,0.0,0.0,0.0,36.72942352294922,3.8092875480651855,-16431.294921875,78.19466400146484,-78.6216812133789,-90.88434600830078,45.40180587768555,0.5261852145195007,-0.022764213383197784
1731876816787.0,0.0,0.0,-20.0,0.0,0.0,0.0,0.0,0.0,0.0,0.0,0.0,0.0,0.0,0.0,0.0,0.0,0.0,0.0,0.0,0.0,0.0,-0.35677582025527954,-11.044524192810059,-16539.6484375,-82.23165893554688,-30.465431213378906,-25.659244537353516,45.450740814208984,-0.21673999726772308,-0.28142842650413513
1731876816837.0,0.0,0.0,-20.0,0.0,0.0,0.0,0.0,0.0,0.0,0.0,0.0,0.0,0.0,0.0,0.0,0.0,0.0,0.0,0.0,0.0,0.0,10.239334106445312,-46.476871490478516,-16432.37890625,-54.21662521362305,-77.60615539550781,-6.547641277313232,45.21383285522461,0.2854340374469757,-0.14373721182346344
1731876816853.0,0.0,0.0,-20.0,0.0,0.0,0.0,0.0,0.0,0.0,0.0,0.0,0.0,0.0,0.0,0.0,0.0,0.0,0.0,0.0,0.0,0.0,75.21314239501953,-82.49164581298828,-16491.7265625,-22.770099639892578,76.9786148071289,-34.208251953125,45.095664978027344,-0.01465373020619154,-0.43224501609802246
1731876816888.0,0.0,0.0,-20.0,0.0,0.0,0.0,0.0,0.0,0.0,0.0,0.0,0.0,0.0,0.0,0.0,0.0,0.0,0.0,-0.03191637992858887,0.0,0.0,-16.389869689941406,-1.096038818359375,-16321.8671875,-280.9296569824219,-3987.3583984375,-30.00775909423828,45.41050338745117,-0.29793843626976013,0.21215307712554932
1731876816888.0,0.0,0.0,-20.0,0.0,0.0,0.0,0.0,0.0,0.0,0.0,0.0,0.0,0.0,0.0,0.0,0.0,0.0,0.0,-0.03191637992858887,0.0,0.0,-16.389869689941406,-1.096038818359375,-16321.8671875,-280.9296569824219,-3987.3583984375,-30.00775909423828,45.41050338745117,-0.29793843626976013,0.21215307712554932
1731876816904.0,0.0,0.0,-20.0,0.0,0.0,0.0,0.0,0.0,0.0,0.0,0.0,0.0,0.0,0.0,0.0,-0.03657348081469536,0.0,0.0,-0.023392507806420326,0.0,0.0,274.6991271972656,142.97100830078125,-16337.1171875,-218.29039001464844,-49.87794494628906,-133.14291381835938,45.10881805419922,-0.3157235383987427,0.15355536341667175
1731876816954.0,0.0,0.0,-20.0,0.0,0.0,0.0,0.0,0.0,0.0,0.0,0.0,0.0,0.0,0.0,0.0,-0.07066820561885834,0.0,0.0,-0.006352454889565706,0.0,0.0,20.296003341674805,-25.88164710998535,-16615.951171875,16.25863265991211,64.40512084960938,62.914703369140625,44.59721755981445,-0.03168846666812897,-0.03606797009706497
1731876816971.0,0.0,0.0,-20.0,0.0,0.0,0.0,0.0,0.0,0.0,0.0,0.0,0.0,0.0,0.0,0.0,-0.07794757932424545,0.0,0.0,0.010602908208966255,0.0,0.0,47.87995910644531,29.79514503479004,-16400.203125,247.51454162597656,-25.58045196533203,27.205598831176758,45.12010955810547,0.476235955953598,-0.605093240737915
1731876816987.0,0.0,0.0,-20.0,0.0,0.0,0.0,0.0,0.0,0.0,0.0,0.0,0.0,0.0,0.0,0.0,-0.06579754501581192,0.0,0.0,0.019041623920202255,0.0,0.0,-104.98477935791016,-36.28066635131836,-16351.3310546875,192.6673583984375,129.5294952392578,-97.49840545654297,45.27449417114258,-0.07706017047166824,-0.42224547266960144
1731876817004.0,0.0,0.0,-20.0,0.0,0.0,0.0,0.0,0.0,0.0,0.0,0.0,0.0,0.0,0.0,0.0,-0.04397744685411453,0.0,0.0,0.027441568672657013,0.0,0.0,216.76283264160156,-45.19602966308594,-16247.923828125,164.62042236328125,-29.78314208984375,-10.21410846710205,45.436588287353516,0.3464495539665222,-0.130262091755867
1731876817054.0,0.0,0.0,-20.0,0.0,0.0,0.0,0.0,0.0,0.0,0.0,0.0,0.0,0.0,0.0,0.0,0.037994384765625,0.0,0.0,0.0607176274061203,0.0,0.0,-122.19629669189453,-1.6616973876953125,-16229.6279296875,375.42449951171875,-85.56785583496094,19.36765480041504,44.77926254272461,-0.20802782475948334,0.29337194561958313
1731876817070.0,0.0,0.0,-20.0,0.0,0.0,0.0,0.0,0.0,0.0,0.0,0.0,0.0,0.0,0.0,0.0,0.107574462890625,0.0,0.0,0.06886928528547287,0.0,0.0,-16.575515747070312,-93.10965728759766,-16448.15234375,563.3851318359375,45.97654724121094,-112.55784606933594,45.39186096191406,-0.024214966222643852,-0.345765084028244
1731876817088.0,0.0,0.0,-20.0,0.0,0.0,0.0,0.0,0.0,0.0,0.0,0.0,0.0,0.0,0.0,0.0,0.186492919921875,0.0,0.0,0.08525137603282928,0.0,0.0,-59.00492477416992,78.00595092773438,-16538.744140625,538.0284423828125,-40.124881744384766,20.271800994873047,44.80419158935547,0.20713114738464355,0.33392441272735596
1731876817104.0,0.0,0.0,-20.0,0.0,0.0,0.0,0.0,0.0,0.0,0.0,0.0,0.0,0.0,0.0,0.0,0.2841796875,0.0,0.0,0.09321261197328568,0.0,0.0,-22.79901885986328,-75.92688751220703,-16157.6572265625,704.78857421875,-115.90645599365234,91.25643157958984,44.9402961730957,-0.165903240442276,-0.0138267632573843
1731876817137.0,0.0,0.0,-20.0,0.0,0.0,0.0,0.0,0.0,0.0,0.0,0.0,0.0,0.0,0.0,0.0,0.3909912109375,0.0,0.0,0.11706940829753876,0.0,0.0,-138.0858917236328,-397.77508544921875,-16303.580078125,859.3851928710938,-48.29152297973633,-0.19519901275634766,45.038387298583984,0.33526328206062317,0.18938769400119781
1731876817171.0,0.0,0.0,-20.0,0.0,0.0,0.0,0.0,0.0,0.0,0.0,0.0,0.0,0.0,0.0,0.0,0.668060302734375,0.0,0.0,0.12407412379980087,0.0,0.0,97.16297912597656,-206.86061096191406,-16244.451171875,963.2557373046875,-80.99951171875,-58.865440368652344,45.281864166259766,-0.2969503402709961,-0.28120845556259155
1731876817171.0,0.0,0.0,-20.0,0.0,0.0,0.0,0.0,0.0,0.0,0.0,0.0,0.0,0.0,0.0,0.0,0.668060302734375,0.0,0.0,0.12407412379980087,0.0,0.0,97.16297912597656,-206.86061096191406,-16244.451171875,963.2557373046875,-80.99951171875,-58.865440368652344,45.281864166259766,-0.2969503402709961,-0.28120845556259155
1731876817187.0,0.0,0.0,-20.0,0.0,0.0,0.0,0.0,0.0,0.0,0.0,0.0,0.0,0.0,0.0,0.0,0.81024169921875,0.0,0.0,0.13152825832366943,0.0,0.0,121.74057006835938,-321.53741455078125,-16242.578125,987.849365234375,-16.588787078857422,-55.5141716003418,44.931941986083984,-0.15227152407169342,0.15955287218093872
1731876817237.0,0.0,0.0,-20.0,0.0,0.0,0.0,0.0,0.0,0.0,0.0,0.0,0.0,0.0,0.0,0.0,1.119140625,0.0,0.0,0.13716788589954376,0.0,0.0,128.05612182617188,-430.3982238769531,-16415.43359375,1116.9156494140625,-20.788896560668945,8.467934608459473,45.263145446777344,-0.0055209435522556305,0.08373596519231796
1731876817253.0,0.0,0.0,-20.0,0.0,0.0,0.0,0.0,0.0,0.0,0.0,0.0,0.0,0.0,0.0,0.0,1.276336669921875,0.0,0.0,0.13628271222114563,0.0,0.0,-110.04061126708984,-251.92919921875,-16514.953125,1006.4306030273438,-100.4521255493164,-163.75762939453125,44.616634368896484,0.10391592979431152,-0.22711436450481415
1731876817270.0,0.0,0.0,-20.0,0.0,0.0,0.0,0.0,0.0,0.0,0.0,0.0,0.0,0.0,0.0,0.0,1.4324951171875,0.0,0.0,0.13535355031490326,0.0,0.0,59.49911117553711,-454.271240234375,-16386.98046875,960.7908935546875,-55.682865142822266,60.9825439453125,44.58858108520508,-0.3779706358909607,0.1850156933069229
1731876817287.0,0.0,0.0,-20.0,0.0,0.0,0.0,0.0,0.0,0.0,0.0,0.0,0.0,0.0,0.0,0.0,1.58758544921875,0.0,0.0,0.13437259197235107,0.0,0.0,-48.10652160644531,-485.6975402832031,-16586.91015625,1065.443603515625,-62.78801727294922,-21.610265731811523,44.645973205566406,-0.19692322611808777,-0.14455494284629822
1731876817320.0,0.0,0.0,-20.0,0.0,0.0,0.0,0.0,0.0,0.0,0.0,0.0,0.0,0.0,0.0,0.0,1.7415771484375,0.0,0.0,0.13231217861175537,0.0,0.0,-136.94056701660156,-276.5021667480469,-16484.69921875,1058.1871337890625,58.97720718383789,42.8208122253418,44.58096694946289,0.37626874446868896,-0.12615758180618286
1731876817354.0,0.0,0.0,-20.0,0.0,0.0,0.0,0.0,0.0,0.0,0.0,0.0,0.0,0.0,0.0,0.0,2.0435791015625,0.0,0.0,0.13011208176612854,0.0,0.0,85.03482818603516,-630.4725952148438,-16391.8515625,958.706298828125,3.390519380569458,82.51113891601562,45.4726676940918,-0.13883614540100098,0.24102245271205902
1731876817370.0,0.0,0.0,-20.0,0.0,0.0,0.0,0.0,0.0,0.0,0.0,0.0,0.0,0.0,0.0,0.0,2.19268798828125,0.0,0.0,0.12895339727401733,0.0,0.0,184.0779266357422,-703.2135009765625,-16406.646484375,1278.3046875,100.16647338867188,-23.97146987915039,44.692710876464844,0.024330222979187965,0.5381811857223511
1731876817370.0,0.0,0.0,-20.0,0.0,0.0,0.0,0.0,0.0,0.0,0.0,0.0,0.0,0.0,0.0,0.0,2.19268798828125,0.0,0.0,0.12895339727401733,0.0,0.0,184.0779266357422,-703.2135009765625,-16406.646484375,1278.3046875,100.16647338867188,-23.97146987915039,44.692710876464844,0.024330222979187965,0.5381811857223511
1731876817421.0,0.0,0.0,-20.0,0.0,0.0,0.0,0.0,0.0,0.0,0.0,0.0,0.0,0.0,0.0,0.0,2.486846923828125,0.0,0.0,0.1252341866493225,0.0,0.0,-26.694713592529297,-781.7268676757812,-16509.779296875,1003.0629272460938,24.696619033813477,47.60362243652344,45.024925231933594,0.1696312427520752,-0.09956129640340805
1731876817437.0,0.0,0.0,-20.0,0.0,0.0,0.0,0.0,0.0,0.0,0.0,0.0,0.0,0.0,0.0,0.0,2.630340576171875,0.0,0.0,0.12394215166568756,0.0,0.0,147.567138671875,-641.437744140625,-16339.7431640625,922.6859130859375,-128.03712463378906,-53.23542404174805,45.1016845703125,0.1254805326461792,-0.03338154777884483
1731876817471.0,0.0,0.0,-20.0,0.0,0.0,0.0,0.0,0.0,0.0,0.0,0.0,0.0,0.0,0.0,0.0,2.912872314453125,0.0,0.0,0.12123572081327438,0.0,0.0,26.51827621459961,-1043.6671142578125,-16270.46484375,1043.775634765625,66.951171875,-33.03394317626953,45.26726531982422,0.04572225734591484,-0.5510010123252869
1731876817487.0,0.0,0.0,-20.0,0.0,0.0,0.0,0.0,0.0,0.0,0.0,0.0,0.0,0.0,0.0,0.0,3.051788330078125,0.0,0.0,0.11985219269990921,0.0,0.0,-47.74116897583008,-850.5341186523438,-16171.80078125,766.517333984375,-156.9309844970703,-36.11863708496094,44.95374298095703,0.10847970843315125,0.5104032158851624
1731876817504.0,0.0,0.0,-20.0,0.0,0.0,0.0,0.0,0.0,0.0,0.0,0.0,0.0,0.0,0.0,0.0,3.18914794921875,0.0,0.0,0.1183936670422554,0.0,0.0,30.230287551879883,-827.3148193359375,-16415.58984375,680.7003173828125,-28.196672439575195,38.202178955078125,44.95123291015625,0.11612728238105774,-0.559188723564148
1731876817538.0,0.0,0.0,-20.0,0.0,0.0,0.0,0.0,0.0,0.0,0.0,0.0,0.0,0.0,0.0,0.0,3.324798583984375,0.0,0.0,0.11543027311563492,0.0,0.0,-163.3915252685547,-907.29052734375,-16348.30078125,1042.098876953125,-51.782474517822266,49.05231475830078,44.90468978881836,0.18766345083713531,-0.202491894364357
1731876817571.0,0.0,0.0,-20.0,0.0,0.0,0.0,0.0,0.0,0.0,0.0,0.0,0.0,0.0,0.0,0.0,3.587615966796875,0.0,0.0,0.11235025525093079,0.0,0.0,95.05465698242188,-1142.150146484375,-16260.7783203125,761.63427734375,-57.072628021240234,94.80420684814453,45.29241943359375,-0.3098532259464264,-0.046364933252334595
1731876817587.0,0.0,0.0,-20.0,0.0,0.0,0.0,0.0,0.0,0.0,0.0,0.0,0.0,0.0,0.0,0.0,3.71636962890625,0.0,0.0,0.11082246154546738,0.0,0.0,-26.28165054321289,-1025.059814453125,-16143.9208984375,796.0125122070312,52.34584045410156,-44.14723587036133,45.221160888671875,0.4450846314430237,-0.3831985294818878
1731876817587.0,0.0,0.0,-20.0,0.0,0.0,0.0,0.0,0.0,0.0,0.0,0.0,0.0,0.0,0.0,0.0,3.71636962890625,0.0,0.0,0.11082246154546738,0.0,0.0,-26.28165054321289,-1025.059814453125,-16143.9208984375,796.0125122070312,52.34584045410156,-44.14723587036133,45.221160888671875,0.4450846314430237,-0.3831985294818878
1731876817637.0,0.0,0.0,-20.0,0.0,0.0,0.0,0.0,0.0,0.0,0.0,0.0,0.0,0.0,0.0,0.0,3.968475341796875,0.0,0.0,0.10582219064235687,0.0,0.0,38.30464172363281,-1054.90869140625,-16327.5888671875,790.1290893554688,-17.609601974487305,109.17903137207031,44.46196746826172,-0.06425420939922333,-0.08849814534187317
1731876817654.0,0.0,0.0,-20.0,0.0,0.0,0.0,0.0,0.0,0.0,0.0,0.0,0.0,0.0,0.0,0.0,4.0897216796875,0.0,0.0,0.10412877798080444,0.0,0.0,-6.153470039367676,-1236.9752197265625,-16354.134765625,705.1738891601562,-73.47505187988281,129.8704071044922,45.044803619384766,-0.06920258700847626,-0.031733594834804535
1731876817688.0,0.0,0.0,-20.0,0.0,0.0,0.0,0.0,0.0,0.0,0.0,0.0,0.0,0.0,0.0,0.0,4.32635498046875,0.0,0.0,0.10056610405445099,0.0,0.0,-45.598628997802734,-1306.37060546875,-16361.484375,696.2306518554688,104.90533447265625,21.04668617248535,44.882110595703125,0.4326167702674866,-0.25306740403175354
1731876817688.0,0.0,0.0,-20.0,0.0,0.0,0.0,0.0,0.0,0.0,0.0,0.0,0.0,0.0,0.0,0.0,4.32635498046875,0.0,0.0,0.10056610405445099,0.0,0.0,-45.598628997802734,-1306.37060546875,-16361.484375,696.2306518554688,104.90533447265625,21.04668617248535,44.882110595703125,0.4326167702674866,-0.25306740403175354
1731876817704.0,0.0,0.0,-20.0,0.0,0.0,0.0,0.0,0.0,0.0,0.0,0.0,0.0,0.0,0.0,0.0,4.441619873046875,0.0,0.0,0.09882766008377075,0.0,0.0,-78.8296127319336,-1429.6878662109375,-16461.21484375,676.4304809570312,-59.7966423034668,71.28337097167969,44.8995475769043,-0.41827264428138733,-0.015618379227817059
1731876817754.0,0.0,0.0,-20.0,0.0,0.0,0.0,0.0,0.0,0.0,0.0,0.0,0.0,0.0,0.0,0.0,4.663848876953125,0.0,0.0,0.09325253963470459,0.0,0.0,18.52675437927246,-1246.1771240234375,-16523.88671875,808.8470458984375,123.61048126220703,-32.66644287109375,45.2771110534668,-0.3489312529563904,0.2109125256538391
1731876817771.0,0.0,0.0,-20.0,0.0,0.0,0.0,0.0,0.0,0.0,0.0,0.0,0.0,0.0,0.0,0.0,4.770721435546875,0.0,0.0,0.0913413017988205,0.0,0.0,-112.72846221923828,-1386.516357421875,-16428.8828125,458.23651123046875,10.65388298034668,85.86702728271484,44.68983840942383,-0.051595043390989304,0.48673132061958313
1731876817787.0,0.0,0.0,-20.0,0.0,0.0,0.0,0.0,0.0,0.0,0.0,0.0,0.0,0.0,0.0,0.0,4.875396728515625,0.0,0.0,0.08939029276371002,0.0,0.0,-66.88196563720703,-1388.529052734375,-16295.462890625,517.9270629882812,-29.045303344726562,104.17230987548828,44.83595275878906,0.07895229011774063,-0.054435890167951584
1731876817804.0,0.0,0.0,-20.0,0.0,0.0,0.0,0.0,0.0,0.0,0.0,0.0,0.0,0.0,0.0,0.0,4.977813720703125,0.0,0.0,0.08738509565591812,-0.04043048247694969,-2.3283064365386963e-10,-1.4891587495803833,-1395.25830078125,-16213.697265625,666.762451171875,-373.1128845214844,18.500919342041016,45.480655670166016,0.4849693775177002,-0.2296241819858551
1731876817838.0,0.0,0.0,-20.0,0.0,0.0,0.0,0.0,0.0,0.0,0.0,0.0,0.0,0.0,0.0,0.0,5.077972412109375,-0.046151649206876755,-0.0040603866800665855,0.08340208977460861,-0.03188035637140274,1.673470251262188e-10,-108.57422637939453,-1383.6064453125,-16286.587890625,599.308349609375,-287.45111083984375,5.63637113571167,44.650264739990234,0.5550709962844849,-0.5755216479301453
1731876817871.0,0.0,0.0,-20.0,0.0,0.0,0.0,0.0,0.0,0.0,0.0,0.0,0.0,0.0,0.0,0.0,5.26678466796875,-0.10918727517127991,-0.009765625,0.07932644337415695,0.002133021131157875,2.9103830456733704e-11,19.12790870666504,-1432.6201171875,-16156.6259765625,711.8655395507812,102.53040313720703,-9.236909866333008,44.65647888183594,-0.156037837266922,-0.0698508620262146
1731876817888.0,0.0,0.0,-20.0,0.0,0.0,0.0,0.0,0.0,0.0,0.0,0.0,0.0,0.0,0.0,0.0,5.357696533203125,-0.10675351321697235,-0.009521484375,0.07726295292377472,0.019075045362114906,-2.9103830456733704e-11,19.952354431152344,-1588.5802001953125,-16141.1396484375,497.4231262207031,-51.2220573425293,-167.43191528320312,45.085227966308594,-0.022935831919312477,-0.13379058241844177
1731876817905.0,0.0,0.0,-20.0,0.0,0.0,0.0,0.0,0.0,0.0,0.0,0.0,0.0,0.0,0.0,0.0,5.44622802734375,-0.08499220013618469,-0.007476806640625,0.07516273111104965,0.03595453128218651,-3.710738383233547e-10,91.34739685058594,-1684.29345703125,-16345.072265625,757.4279174804688,294.9584655761719,-94.70068359375,44.94358444213867,0.5590947270393372,0.24831506609916687
1731876817938.0,0.0,0.0,-20.0,0.0,0.0,0.0,0.0,0.0,0.0,0.0,0.0,0.0,0.0,0.0,0.0,5.5323486328125,-0.04398026689887047,-0.0035336448345333338,0.07088414579629898,0.07788712531328201,-1.0913936421275139e-10,-42.52928924560547,-1610.6993408203125,-16275.9853515625,523.3944702148438,632.1930541992188,-53.83116149902344,45.09123611450195,0.06920569390058517,-0.2551843225955963
1731876817955.0,0.0,0.0,-20.0,0.0,0.0,0.0,0.0,0.0,0.0,0.0,0.0,0.0,0.0,0.0,0.0,5.613555908203125,0.04486083984375,0.0051339007914066315,0.06873835623264313,0.08607693761587143,-2.9831426218152046e-10,96.26002502441406,-1612.2960205078125,-16323.0322265625,382.55029296875,743.6276245117188,-21.755887985229492,45.333213806152344,0.007271012756973505,-0.10795693844556808
1731876817987.0,0.0,0.0,-20.0,0.0,0.0,0.0,0.0,0.0,0.0,0.0,0.0,0.0,0.0,0.0,0.0,5.768646240234375,0.250396728515625,0.02562728151679039,0.06445502489805222,0.10224685817956924,2.0954757928848267e-09,127.8356704711914,-1427.263671875,-16379.1826171875,531.9993896484375,679.5215454101562,4.967320442199707,45.36322784423828,0.10890700668096542,0.18995580077171326
1731876817987.0,0.0,0.0,-20.0,0.0,0.0,0.0,0.0,0.0,0.0,0.0,0.0,0.0,0.0,0.0,0.0,5.768646240234375,0.250396728515625,0.02562728151679039,0.06445502489805222,0.10224685817956924,2.0954757928848267e-09,127.8356704711914,-1427.263671875,-16379.1826171875,531.9993896484375,679.5215454101562,4.967320442199707,45.36322784423828,0.10890700668096542,0.18995580077171326
1731876818038.0,0.0,0.0,-20.0,0.0,0.0,0.0,0.0,0.0,0.0,0.0,0.0,0.0,0.0,0.0,0.0,5.9139404296875,0.48309326171875,0.04943649470806122,0.05773729830980301,0.10107588768005371,-1.3387762010097504e-09,175.606689453125,-1626.1925048828125,-16242.60546875,311.3282775878906,1045.156005859375,-36.477203369140625,45.11894989013672,0.09935898333787918,-0.21993371844291687
1731876818055.0,0.0,0.0,-20.0,0.0,0.0,0.0,0.0,0.0,0.0,0.0,0.0,0.0,0.0,0.0,0.0,5.980224609375,0.598297119140625,0.06143759936094284,0.05538726598024368,0.10061289370059967,-8.149072527885437e-10,231.7089080810547,-1675.5386962890625,-16360.533203125,376.7276916503906,838.3698120117188,-94.18824005126953,44.82669448852539,0.017144279554486275,0.40326207876205444
1731876818088.0,0.0,0.0,-20.0,0.0,0.0,0.0,0.0,0.0,0.0,0.0,0.0,0.0,0.0,0.0,0.0,6.10498046875,0.83642578125,0.08665189892053604,0.050907205790281296,0.1077914759516716,9.89530235528946e-10,236.782958984375,-1715.6937255859375,-16233.490234375,484.2274475097656,894.3348999023438,-19.963735580444336,45.519901275634766,0.14578397572040558,1.1859130859375
1731876818088.0,0.0,0.0,-20.0,0.0,0.0,0.0,0.0,0.0,0.0,0.0,0.0,0.0,0.0,0.0,0.0,6.10498046875,0.83642578125,0.08665189892053604,0.050907205790281296,0.1077914759516716,9.89530235528946e-10,236.782958984375,-1715.6937255859375,-16233.490234375,484.2274475097656,894.3348999023438,-19.963735580444336,45.519901275634766,0.14578397572040558,1.1859130859375
1731876818138.0,0.0,0.0,-20.0,0.0,0.0,0.0,0.0,0.0,0.0,0.0,0.0,0.0,0.0,0.0,0.0,6.2193603515625,1.08135986328125,0.1131029948592186,0.04384694620966911,0.12195015698671341,-1.7462298274040222e-10,343.21514892578125,-1785.1102294921875,-16121.38671875,276.7205505371094,885.7879638671875,-113.65796661376953,44.917869567871094,0.09552795439958572,0.8962063789367676
1731876818154.0,0.0,0.0,-20.0,0.0,0.0,0.0,0.0,0.0,0.0,0.0,0.0,0.0,0.0,0.0,0.0,6.2698974609375,1.22027587890625,0.128306582570076,0.041650958359241486,0.12918676435947418,-1.9208528101444244e-09,262.00787353515625,-1815.2882080078125,-16317.1494140625,227.9791259765625,979.3030395507812,24.622116088867188,45.41032028198242,-0.19033122062683105,0.7419455051422119
1731876818188.0,0.0,0.0,-20.0,0.0,0.0,0.0,0.0,0.0,0.0,0.0,0.0,0.0,0.0,0.0,0.0,6.363311767578125,1.513519287109375,0.1607821136713028,0.036916688084602356,0.1352977305650711,-1.1641532182693481e-10,523.2467041015625,-2060.7236328125,-16247.3623046875,187.47080993652344,1219.4224853515625,-21.358890533447266,44.96692657470703,-0.6224285364151001,0.9306354522705078
1731876818188.0,0.0,0.0,-20.0,0.0,0.0,0.0,0.0,0.0,0.0,0.0,0.0,0.0,0.0,0.0,0.0,6.363311767578125,1.513519287109375,0.1607821136713028,0.036916688084602356,0.1352977305650711,-1.1641532182693481e-10,523.2467041015625,-2060.7236328125,-16247.3623046875,187.47080993652344,1219.4224853515625,-21.358890533447266,44.96692657470703,-0.6224285364151001,0.9306354522705078
1731876818204.0,0.0,0.0,-20.0,0.0,0.0,0.0,0.0,0.0,0.0,0.0,0.0,0.0,0.0,0.0,0.0,6.406097412109375,1.6676025390625,0.17802973091602325,0.03453373536467552,0.13432183861732483,-1.1641532182693481e-09,433.5611572265625,-1978.6197509765625,-16196.3017578125,197.98397827148438,1122.2283935546875,-57.66049575805664,45.07085037231445,0.22413110733032227,1.3020249605178833
1731876818254.0,0.0,0.0,-20.0,0.0,0.0,0.0,0.0,0.0,0.0,0.0,0.0,0.0,0.0,0.0,0.0,6.4808349609375,1.979888916015625,0.21332357823848724,0.027329599484801292,0.13877354562282562,2.9103830456733704e-10,490.35546875,-1935.5936279296875,-16382.828125,278.34698486328125,1184.926513671875,83.76555633544922,45.62297439575195,0.25118952989578247,2.1278462409973145
1731876818271.0,0.0,0.0,-20.0,0.0,0.0,0.0,0.0,0.0,0.0,0.0,0.0,0.0,0.0,0.0,0.0,6.5128173828125,2.13787841796875,0.2313283383846283,0.02492971159517765,0.13759276270866394,-5.820766091346741e-11,557.142578125,-2034.453857421875,-16346.1279296875,248.9002227783203,1184.46875,-75.94278717041016,44.97272872924805,-0.52793949842453,1.8723034858703613
1731876818288.0,0.0,0.0,-20.0,0.0,0.0,0.0,0.0,0.0,0.0,0.0,0.0,0.0,0.0,0.0,0.0,6.542083740234375,2.294525146484375,0.24926553666591644,0.022505231201648712,0.13636498153209686,9.313225746154785e-10,685.5623779296875,-1891.81787109375,-16319.1337890625,101.72854614257812,1106.09619140625,30.94212532043457,45.231319427490234,-0.02486901357769966,1.5216100215911865
1731876818304.0,0.0,0.0,-20.0,0.0,0.0,0.0,0.0,0.0,0.0,0.0,0.0,0.0,0.0,0.0,0.0,6.568603515625,2.44976806640625,0.2671201825141907,0.020109981298446655,0.13511775434017181,2.9103830456733704e-10,650.185302734375,-1792.154052734375,-16243.44921875,199.7571563720703,947.0244140625,15.117870330810547,45.00804901123047,0.26685404777526855,1.4253294467926025
1731876818355.0,0.0,0.0,-20.0,0.0,0.0,0.0,0.0,0.0,0.0,0.0,0.0,0.0,0.0,0.0,0.0,6.61065673828125,2.754364013671875,0.3023497760295868,0.012769031338393688,0.13108614087104797,0.0,755.5391235351562,-1871.5833740234375,-16313.0224609375,26.567245483398438,800.6095581054688,46.11897277832031,45.23687744140625,-0.2208332121372223,2.461334705352783
1731876818371.0,0.0,0.0,-20.0,0.0,0.0,0.0,0.0,0.0,0.0,0.0,0.0,0.0,0.0,0.0,0.0,6.62615966796875,2.903564453125,0.31968390941619873,0.0103556914255023,0.12969247996807098,-6.402842700481415e-10,680.3623046875,-1906.1304931640625,-16240.0,43.07879638671875,1095.85986328125,-135.2650604248047,45.01464080810547,-0.24986551702022552,1.913509726524353
1731876818388.0,0.0,0.0,-20.0,0.0,0.0,0.0,0.0,0.0,0.0,0.0,0.0,0.0,0.0,0.0,0.0,6.638916015625,3.051177978515625,0.33687251806259155,0.007921634241938591,0.12825284898281097,1.076841726899147e-09,872.177734375,-2087.15283203125,-16219.73828125,59.687374114990234,939.6687622070312,42.57354736328125,44.73890686035156,0.1867869794368744,2.1247568130493164
1731876818404.0,0.0,0.0,-20.0,0.0,0.0,0.0,0.0,0.0,0.0,0.0,0.0,0.0,0.0,0.0,0.0,6.64892578125,3.197174072265625,0.35390162467956543,0.005467472597956657,0.12676693499088287,6.402842700481415e-10,988.5890502929688,-1733.0892333984375,-16150.677734375,-133.30581665039062,864.7383422851562,70.51862335205078,44.99263381958008,-0.07713723927736282,2.4373834133148193
1731876818438.0,0.0,0.0,-20.0,0.0,0.0,0.0,0.0,0.0,0.0,0.0,0.0,0.0,0.0,0.0,0.0,6.6561279296875,3.341461181640625,0.3707575500011444,0.0005014525959268212,0.12365466356277466,6.657501216977835e-10,940.67578125,-1968.693359375,-16403.44921875,8.231146812438965,1006.1578979492188,-132.0095672607422,45.210289001464844,-0.6315929889678955,2.032660484313965
1731876818455.0,0.0,0.0,-20.0,0.0,0.0,0.0,0.0,0.0,0.0,0.0,0.0,0.0,0.0,0.0,0.0,6.657684326171875,3.482208251953125,0.3872129023075104,-0.0019731619395315647,0.12205115705728531,4.94765117764473e-10,811.4761962890625,-1934.0667724609375,-16217.8525390625,-3.3154542446136475,761.6299438476562,-0.944639265537262,45.320274353027344,0.09542153775691986,2.403289794921875
1731876818488.0,0.0,0.0,-20.0,0.0,0.0,0.0,0.0,0.0,0.0,0.0,0.0,0.0,0.0,0.0,0.0,6.6524658203125,3.75823974609375,0.41948845982551575,-0.006848358549177647,0.1187896654009819,8.440110832452774e-10,1158.5557861328125,-1866.7154541015625,-16391.689453125,-90.89961242675781,984.2584228515625,-60.87548828125,45.45840835571289,0.30199119448661804,2.6003260612487793
1731876818488.0,0.0,0.0,-20.0,0.0,0.0,0.0,0.0,0.0,0.0,0.0,0.0,0.0,0.0,0.0,0.0,6.6524658203125,3.75823974609375,0.41948845982551575,-0.006848358549177647,0.1187896654009819,8.440110832452774e-10,1158.5557861328125,-1866.7154541015625,-16391.689453125,-90.89961242675781,984.2584228515625,-60.87548828125,45.45840835571289,0.30199119448661804,2.6003260612487793
1731876818538.0,0.0,0.0,-20.0,0.0,0.0,0.0,0.0,0.0,0.0,0.0,0.0,0.0,0.0,0.0,0.0,6.636077880859375,4.026702880859375,0.4508383274078369,-0.014181018806993961,0.11362716555595398,1.862645149230957e-09,1059.6033935546875,-2000.509521484375,-16304.2099609375,-64.823486328125,797.541748046875,-32.609466552734375,45.41657257080078,0.19369138777256012,3.1272480487823486
1731876818555.0,0.0,0.0,-20.0,0.0,0.0,0.0,0.0,0.0,0.0,0.0,0.0,0.0,0.0,0.0,0.0,6.62091064453125,4.156036376953125,0.46590662002563477,-0.016606373712420464,0.11185123771429062,-1.0477378964424133e-09,1258.1806640625,-2083.41845703125,-16314.2548828125,-122.10478210449219,843.5507202148438,-93.56074523925781,44.53272247314453,0.1052948385477066,3.835439682006836
1731876818572.0,0.0,0.0,-20.0,0.0,0.0,0.0,0.0,0.0,0.0,0.0,0.0,0.0,0.0,0.0,0.0,6.60296630859375,4.283355712890625,0.4807049334049225,-0.019062712788581848,0.11001765727996826,2.3283064365386963e-10,1220.254150390625,-1769.10107421875,-16266.4189453125,-228.6896514892578,1031.6787109375,33.03898239135742,44.72737503051758,0.28305208683013916,2.7200467586517334
1731876818588.0,0.0,0.0,-20.0,0.0,0.0,0.0,0.0,0.0,0.0,0.0,0.0,0.0,0.0,0.0,0.0,6.58221435546875,4.408599853515625,0.49522075057029724,-0.02149590291082859,0.10816649347543716,5.820766091346741e-10,1121.5179443359375,-1841.650634765625,-16139.943359375,-164.95729064941406,978.8618774414062,-5.1551513671875,44.72601318359375,-0.08515042066574097,3.1654858589172363
1731876818605.0,0.0,0.0,-20.0,0.0,0.0,0.0,0.0,0.0,0.0,0.0,0.0,0.0,0.0,0.0,0.0,6.558685302734375,4.53173828125,0.509446918964386,-0.023923084139823914,0.10628508776426315,2.3283064365386963e-10,1323.7947998046875,-1994.68994140625,-16181.00390625,-112.90386962890625,859.418701171875,23.334993362426758,44.88787841796875,0.2290400117635727,3.7083964347839355
1731876818655.0,0.0,0.0,-20.0,0.0,0.0,0.0,0.0,0.0,0.0,0.0,0.0,0.0,0.0,0.0,0.0,6.500518798828125,4.76934814453125,0.5367398858070374,-0.031109197065234184,0.10050804913043976,1.1641532182693481e-09,1318.80712890625,-1869.824462890625,-16239.5625,-287.4671325683594,811.963623046875,-32.454200744628906,44.99776077270508,-0.13883157074451447,3.5757124423980713
1731876818672.0,0.0,0.0,-20.0,0.0,0.0,0.0,0.0,0.0,0.0,0.0,0.0,0.0,0.0,0.0,0.0,6.465972900390625,4.8837890625,0.5497907996177673,-0.03348829597234726,0.0985262542963028,6.984919309616089e-10,1249.4395751953125,-1795.5499267578125,-16233.62109375,-349.7499084472656,841.799560546875,-17.01603126525879,44.596641540527344,0.4773174822330475,3.3239223957061768
1731876818688.0,0.0,0.0,-20.0,0.0,0.0,0.0,0.0,0.0,0.0,0.0,0.0,0.0,0.0,0.0,0.0,6.428680419921875,4.9959716796875,0.5625158548355103,-0.035858169198036194,0.09651730209589005,1.3969838619232178e-09,1379.1978759765625,-1761.8302001953125,-16067.2939453125,-209.8500213623047,629.107666015625,72.10590362548828,45.01565170288086,-0.33671537041664124,3.434751510620117
1731876818705.0,0.0,0.0,-20.0,0.0,0.0,0.0,0.0,0.0,0.0,0.0,0.0,0.0,0.0,0.0,0.0,6.388702392578125,5.10589599609375,0.5749092102050781,-0.03825278580188751,0.09445163607597351,4.656612873077393e-10,1471.974365234375,-1892.598388671875,-16330.2705078125,-300.5918273925781,587.7911376953125,50.64918518066406,44.87363052368164,0.1985989511013031,4.544585227966309
1731876818739.0,0.0,0.0,-20.0,0.0,0.0,0.0,0.0,0.0,0.0,0.0,0.0,0.0,0.0,0.0,0.0,6.345947265625,5.21343994140625,0.5869613289833069,-0.04300878569483757,0.09024045616388321,-4.656612873077393e-10,1198.27685546875,-1696.8558349609375,-16331.4921875,-505.35772705078125,720.976318359375,49.14163589477539,44.712623596191406,-0.17604437470436096,3.627561092376709
1731876818772.0,0.0,0.0,-20.0,0.0,0.0,0.0,0.0,0.0,0.0,0.0,0.0,0.0,0.0,0.0,0.0,6.246826171875,5.416656494140625,0.6094816327095032,-0.04761418700218201,0.08602168411016464,9.313225746154785e-10,1800.501220703125,-1646.156494140625,-16008.716796875,-192.50697326660156,815.2479248046875,-26.426414489746094,45.018428802490234,-0.1902274489402771,4.4576735496521
1731876818788.0,0.0,0.0,-20.0,0.0,0.0,0.0,0.0,0.0,0.0,0.0,0.0,0.0,0.0,0.0,0.0,6.19329833984375,5.5146484375,0.6202106475830078,-0.049897801131010056,0.08387698233127594,0.0,1547.9949951171875,-1581.0343017578125,-16137.4609375,-453.21270751953125,473.4952392578125,-50.03678894042969,44.93511199951172,-0.09029385447502136,4.777716636657715
1731876818788.0,0.0,0.0,-20.0,0.0,0.0,0.0,0.0,0.0,0.0,0.0,0.0,0.0,0.0,0.0,0.0,6.19329833984375,5.5146484375,0.6202106475830078,-0.049897801131010056,0.08387698233127594,0.0,1547.9949951171875,-1581.0343017578125,-16137.4609375,-453.21270751953125,473.4952392578125,-50.03678894042969,44.93511199951172,-0.09029385447502136,4.777716636657715
1731876818839.0,0.0,0.0,-20.0,0.0,0.0,0.0,0.0,0.0,0.0,0.0,0.0,0.0,0.0,0.0,0.0,6.0782470703125,5.703216552734375,0.6405850052833557,-0.05681376904249191,0.07716036587953568,-9.313225746154785e-10,1666.743408203125,-1808.5777587890625,-16226.6884765625,-426.03875732421875,441.16973876953125,6.879387378692627,44.29067611694336,0.2844143211841583,4.3708624839782715
1731876818855.0,0.0,0.0,-20.0,0.0,0.0,0.0,0.0,0.0,0.0,0.0,0.0,0.0,0.0,0.0,0.0,6.014068603515625,5.7911376953125,0.6499451994895935,-0.059071287512779236,0.07489347457885742,-4.656612873077393e-10,1538.42529296875,-1603.89208984375,-16151.8330078125,-441.1352844238281,539.868408203125,131.182373046875,44.635807037353516,0.13297757506370544,4.6400556564331055
1731876818889.0,0.0,0.0,-20.0,0.0,0.0,0.0,0.0,0.0,0.0,0.0,0.0,0.0,0.0,0.0,0.0,5.877899169921875,5.959259033203125,0.6675482988357544,-0.0635361522436142,0.0702974870800972,-4.656612873077393e-10,1687.8385009765625,-1735.1072998046875,-16430.962890625,-430.54998779296875,365.43841552734375,84.10414123535156,45.442100524902344,-0.4672805964946747,4.665386199951172
1731876818889.0,0.0,0.0,-20.0,0.0,0.0,0.0,0.0,0.0,0.0,0.0,0.0,0.0,0.0,0.0,0.0,5.877899169921875,5.959259033203125,0.6675482988357544,-0.0635361522436142,0.0702974870800972,-4.656612873077393e-10,1687.8385009765625,-1735.1072998046875,-16430.962890625,-430.54998779296875,365.43841552734375,84.10414123535156,45.442100524902344,-0.4672805964946747,4.665386199951172
1731876818938.0,0.0,0.0,-20.0,0.0,0.0,0.0,0.0,0.0,0.0,0.0,0.0,0.0,0.0,0.0,0.0,5.731475830078125,6.11688232421875,0.6836676001548767,-0.06998830288648605,0.06337898224592209,4.656612873077393e-10,1994.8004150390625,-1644.2874755859375,-16191.7119140625,-515.2083129882812,484.9412841796875,48.63222122192383,45.010311126708984,-0.06229342520236969,5.258707046508789
1731876818955.0,0.0,0.0,-20.0,0.0,0.0,0.0,0.0,0.0,0.0,0.0,0.0,0.0,0.0,0.0,0.0,5.652069091796875,6.18914794921875,0.690912127494812,-0.07216966152191162,0.06096211075782776,9.313225746154785e-10,1754.1259765625,-1501.58349609375,-16228.7568359375,-656.8014526367188,506.0906677246094,30.399093627929688,44.61294937133789,-0.21800296008586884,4.6709136962890625
1731876818972.0,0.0,0.0,-20.0,0.0,0.0,0.0,0.0,0.0,0.0,0.0,0.0,0.0,0.0,0.0,0.0,5.570098876953125,6.258697509765625,0.6977829933166504,-0.07426836341619492,0.05859798192977905,0.0,1772.2886962890625,-1569.4290771484375,-16140.4111328125,-533.2579956054688,410.1575012207031,75.13404083251953,45.00502014160156,0.30108320713043213,4.946317195892334
1731876818989.0,0.0,0.0,-20.0,0.0,0.0,0.0,0.0,0.0,0.0,0.0,0.0,0.0,0.0,0.0,0.0,5.4857177734375,6.325531005859375,0.7042906284332275,-0.07650003582239151,0.05604102835059166,-9.313225746154785e-10,1809.524169921875,-1587.2889404296875,-16337.28125,-677.8275146484375,594.5243530273438,-7.0059075355529785,44.74861145019531,-0.21598505973815918,5.091908931732178
1731876819005.0,0.0,0.0,-20.0,0.0,0.0,0.0,0.0,0.0,0.0,0.0,0.0,0.0,0.0,0.0,0.0,5.39874267578125,6.38946533203125,0.7104189395904541,-0.07848048955202103,0.05373362451791763,1.862645149230957e-09,1716.8594970703125,-1602.0430908203125,-16328.4443359375,-608.3219604492188,455.1781005859375,-16.957229614257812,44.61552429199219,0.46428272128105164,5.214591026306152
1731876819055.0,0.0,0.0,-20.0,0.0,0.0,0.0,0.0,0.0,0.0,0.0,0.0,0.0,0.0,0.0,0.0,5.215362548828125,6.506439208984375,0.7213635444641113,-0.08453614264726639,0.04644300788640976,-9.313225746154785e-10,1969.062744140625,-1420.53955078125,-16094.689453125,-566.836181640625,294.42340087890625,-46.93671417236328,44.62541580200195,0.03383941948413849,5.005876064300537
1731876819072.0,0.0,0.0,-20.0,0.0,0.0,0.0,0.0,0.0,0.0,0.0,0.0,0.0,0.0,0.0,0.0,5.119049072265625,6.5594482421875,0.7261879444122314,-0.08659137785434723,0.043883439153432846,0.0,1871.7432861328125,-1520.966796875,-16259.736328125,-952.6257934570312,277.7620849609375,-150.3407745361328,44.83185577392578,0.09781685471534729,4.823672771453857
1731876819089.0,0.0,0.0,-20.0,0.0,0.0,0.0,0.0,0.0,0.0,0.0,0.0,0.0,0.0,0.0,0.0,5.02032470703125,6.60955810546875,0.730661153793335,-0.08854944258928299,0.041402313858270645,9.313225746154785e-10,1960.6787109375,-1534.71728515625,-16188.5029296875,-539.6387329101562,409.187255859375,-16.886337280273438,44.79872512817383,0.11438146233558655,5.392423629760742
1731876819105.0,0.0,0.0,-20.0,0.0,0.0,0.0,0.0,0.0,0.0,0.0,0.0,0.0,0.0,0.0,0.0,4.919342041015625,6.65679931640625,0.7347989678382874,-0.09048309177160263,0.03890977054834366,-9.313225746154785e-10,1801.1380615234375,-1288.5867919921875,-16047.1630859375,-689.132080078125,363.1535949707031,-20.264127731323242,44.499881744384766,-0.14785389602184296,4.550719738006592
1731876819139.0,0.0,0.0,-20.0,0.0,0.0,0.0,0.0,0.0,0.0,0.0,0.0,0.0,0.0,0.0,0.0,4.81610107421875,6.70123291015625,0.7386084198951721,-0.09428882598876953,0.03387469798326492,0.0,1920.3404541015625,-1325.756103515625,-16076.2568359375,-753.5831909179688,370.4407043457031,-81.98995208740234,44.800941467285156,-0.13668037950992584,5.061570644378662
1731876819172.0,0.0,0.0,-20.0,0.0,0.0,0.0,0.0,0.0,0.0,0.0,0.0,0.0,0.0,0.0,0.0,4.59857177734375,6.77569580078125,0.7447867393493652,-0.09797648340463638,0.028820648789405823,0.0,2017.287353515625,-1137.5255126953125,-16203.7275390625,-907.5114135742188,314.273681640625,-24.99950408935547,44.20252990722656,0.0017909407615661621,5.44114875793457
1731876819189.0,0.0,0.0,-20.0,0.0,0.0,0.0,0.0,0.0,0.0,0.0,0.0,0.0,0.0,0.0,0.0,4.48663330078125,6.808624267578125,0.7474208474159241,-0.09981954842805862,0.026225261390209198,-9.313225746154785e-10,1907.8709716796875,-1312.757080078125,-16173.1865234375,-1008.95263671875,4155.74267578125,2.3172035217285156,44.18695831298828,0.25912025570869446,4.940186500549316
1731876819205.0,0.0,0.0,-20.0,0.0,0.0,0.0,0.0,0.0,0.0,0.0,0.0,0.0,0.0,0.0,0.0,4.372528076171875,6.838592529296875,0.7497584223747253,-0.10159502923488617,0.023678580299019814,0.0,2060.90625,-1146.4522705078125,-16301.732421875,-809.38330078125,191.47396850585938,67.49810028076172,45.00140380859375,-0.2958916425704956,5.498906135559082
1731876819239.0,0.0,0.0,-20.0,0.0,0.0,0.0,0.0,0.0,0.0,0.0,0.0,0.0,0.0,0.0,0.0,4.25634765625,6.86566162109375,0.7518142461776733,-0.1050865426659584,0.018528666347265244,0.0,1929.45068359375,-1262.345703125,-16250.640625,-885.6915283203125,152.33082580566406,6.681228160858154,44.818260192871094,-0.40194785594940186,5.999670505523682
1731876819255.0,0.0,0.0,-20.0,0.0,0.0,0.0,0.0,0.0,0.0,0.0,0.0,0.0,0.0,0.0,0.0,4.1361083984375,6.886810302734375,0.7533790469169617,-0.1067761480808258,0.0159644465893507,-1.862645149230957e-09,2006.6474609375,-1395.8682861328125,-16274.64453125,-876.9398193359375,109.4372787475586,24.360858917236328,44.72752380371094,-0.6884266138076782,6.231435775756836
1731876819289.0,0.0,0.0,-20.0,0.0,0.0,0.0,0.0,0.0,0.0,0.0,0.0,0.0,0.0,0.0,0.0,3.8897705078125,6.92034912109375,0.755752682685852,-0.11009033769369125,0.010785667225718498,0.0,1975.5081787109375,-1174.51806640625,-16226.1748046875,-853.0838623046875,109.84925079345703,85.92159271240234,44.99140548706055,-0.23315833508968353,5.263535022735596
1731876819289.0,0.0,0.0,-20.0,0.0,0.0,0.0,0.0,0.0,0.0,0.0,0.0,0.0,0.0,0.0,0.0,3.8897705078125,6.92034912109375,0.755752682685852,-0.11009033769369125,0.010785667225718498,0.0,1975.5081787109375,-1174.51806640625,-16226.1748046875,-853.0838623046875,109.84925079345703,85.92159271240234,44.99140548706055,-0.23315833508968353,5.263535022735596
1731876819339.0,0.0,0.0,-20.0,0.0,0.0,0.0,0.0,0.0,0.0,0.0,0.0,0.0,0.0,0.0,0.0,3.635833740234375,6.942138671875,0.7571980953216553,-0.11480725556612015,0.003034625668078661,9.313225746154785e-10,2092.694580078125,-1070.054443359375,-16219.4990234375,-823.353759765625,-14.087858200073242,28.837886810302734,44.6343879699707,-0.029831647872924805,5.600722312927246
1731876819356.0,0.0,0.0,-20.0,0.0,0.0,0.0,0.0,0.0,0.0,0.0,0.0,0.0,0.0,0.0,0.0,3.504302978515625,6.945587158203125,0.7574161291122437,-0.11633479595184326,0.00041669001802802086,-9.313225746154785e-10,1961.41552734375,-1088.11083984375,-16207.6953125,-926.7168579101562,14.16557788848877,-68.21468353271484,44.25411605834961,-0.7578698396682739,5.01001501083374
1731876819389.0,0.0,0.0,-20.0,0.0,0.0,0.0,0.0,0.0,0.0,0.0,0.0,0.0,0.0,0.0,0.0,3.2359619140625,6.943572998046875,0.7572997212409973,-0.11925899982452393,-0.00476190447807312,9.313225746154785e-10,1952.3016357421875,-732.3448486328125,-16381.783203125,-874.21435546875,-97.386962890625,-26.981800079345703,44.56434631347656,0.23476216197013855,5.44992733001709
1731876819389.0,0.0,0.0,-20.0,0.0,0.0,0.0,0.0,0.0,0.0,0.0,0.0,0.0,0.0,0.0,0.0,3.2359619140625,6.943572998046875,0.7572997212409973,-0.11925899982452393,-0.00476190447807312,9.313225746154785e-10,1952.3016357421875,-732.3448486328125,-16381.783203125,-874.21435546875,-97.386962890625,-26.981800079345703,44.56434631347656,0.23476216197013855,5.44992733001709
1731876819405.0,0.0,0.0,-20.0,0.0,0.0,0.0,0.0,0.0,0.0,0.0,0.0,0.0,0.0,0.0,0.0,3.099273681640625,6.938140869140625,0.7569959759712219,-0.12065631151199341,-0.007321151904761791,-9.313225746154785e-10,2068.429931640625,-972.4158325195312,-16281.658203125,-904.6991577148438,-14.022540092468262,27.942237854003906,44.658958435058594,-0.5221118927001953,6.030672073364258
1731876819456.0,0.0,0.0,-20.0,0.0,0.0,0.0,0.0,0.0,0.0,0.0,0.0,0.0,0.0,0.0,0.0,2.819427490234375,6.9154052734375,0.7558189630508423,-0.12471649795770645,-0.015116365626454353,-9.313225746154785e-10,2083.0029296875,-785.7918090820312,-16235.7744140625,-993.1513061523438,4.2032012939453125,-34.880592346191406,44.944210052490234,-0.3515399992465973,5.351820945739746
1731876819472.0,0.0,0.0,-20.0,0.0,0.0,0.0,0.0,0.0,0.0,0.0,0.0,0.0,0.0,0.0,0.0,2.676422119140625,6.898101806640625,0.7549824714660645,-0.12599723041057587,-0.01770096831023693,-1.862645149230957e-09,2205.52685546875,-885.8050537109375,-16351.392578125,-942.861572265625,-108.06407165527344,-181.08395385742188,44.91236877441406,-0.6781883239746094,4.723221778869629
1731876819489.0,0.0,0.0,-20.0,0.0,0.0,0.0,0.0,0.0,0.0,0.0,0.0,0.0,0.0,0.0,0.0,2.53192138671875,6.877838134765625,0.7540541887283325,-0.12724269926548004,-0.020280612632632256,9.313225746154785e-10,1928.515380859375,-819.364501953125,-16308.685546875,-919.58056640625,-150.01437377929688,-3.8340954780578613,44.841529846191406,-0.5549159646034241,5.356464385986328
1731876819506.0,0.0,0.0,-20.0,0.0,0.0,0.0,0.0,0.0,0.0,0.0,0.0,0.0,0.0,0.0,0.0,2.385986328125,6.8546142578125,0.7530497908592224,-0.1284351944923401,-0.022817058488726616,9.313225746154785e-10,1901.851806640625,-497.3052978515625,-16252.060546875,-963.4561157226562,-117.39599609375,2.4096410274505615,44.550323486328125,-0.009828627109527588,5.0455474853515625
1731876819556.0,0.0,0.0,-20.0,0.0,0.0,0.0,0.0,0.0,0.0,0.0,0.0,0.0,0.0,0.0,0.0,2.088714599609375,6.796478271484375,0.7507697939872742,-0.13185754418373108,-0.030516697093844414,9.313225746154785e-10,2016.715087890625,-657.0001220703125,-16433.716796875,-1179.4747314453125,-329.3657531738281,-56.563865661621094,44.80195617675781,-0.3610089421272278,5.741076469421387
1731876819572.0,0.0,0.0,-20.0,0.0,0.0,0.0,0.0,0.0,0.0,0.0,0.0,0.0,0.0,0.0,0.0,1.937469482421875,6.76153564453125,0.7495326995849609,-0.1329144388437271,-0.03304233402013779,9.313225746154785e-10,1890.2540283203125,-643.8544311523438,-16242.140625,-1006.1083984375,-295.7010192871094,21.35101890563965,44.92170715332031,-0.42049792408943176,4.980038642883301
1731876819589.0,0.0,0.0,-20.0,0.0,0.0,0.0,0.0,0.0,0.0,0.0,0.0,0.0,0.0,0.0,0.0,1.7850341796875,6.72369384765625,0.7482942938804626,-0.13393472135066986,-0.03555885702371597,-9.313225746154785e-10,1874.3775634765625,-397.43756103515625,-16349.12890625,-948.5975952148438,-290.09521484375,-21.821828842163086,44.470428466796875,-0.824195384979248,5.088329315185547
1731876819606.0,0.0,0.0,-20.0,0.0,0.0,0.0,0.0,0.0,0.0,0.0,0.0,0.0,0.0,0.0,0.0,1.63140869140625,6.682952880859375,0.747071385383606,-0.13492517173290253,-0.03808398172259331,-9.313225746154785e-10,1779.183349609375,-458.2544250488281,-16289.419921875,-893.6739501953125,-238.85665893554688,30.361845016479492,43.93026351928711,-0.3663215637207031,5.5349202156066895
1731876819656.0,0.0,0.0,-20.0,0.0,0.0,0.0,0.0,0.0,0.0,0.0,0.0,0.0,0.0,0.0,0.0,1.31976318359375,6.5899658203125,0.7446669936180115,-0.137656569480896,-0.04555635154247284,0.0,1808.544189453125,-491.380126953125,-16065.7431640625,-1282.6044921875,-333.5758972167969,16.964326858520508,44.486087799072266,0.032968759536743164,5.7390031814575195
1731876819673.0,0.0,0.0,-20.0,0.0,0.0,0.0,0.0,0.0,0.0,0.0,0.0,0.0,0.0,0.0,0.0,1.161895751953125,6.53778076171875,0.7435291409492493,-0.138495072722435,-0.04803486168384552,1.862645149230957e-09,1931.0675048828125,-158.2847137451172,-16326.2900390625,-1011.7789916992188,-318.8924865722656,104.87578582763672,44.68686294555664,-0.38732239603996277,5.097697734832764
1731876819689.0,0.0,0.0,-20.0,0.0,0.0,0.0,0.0,0.0,0.0,0.0,0.0,0.0,0.0,0.0,0.0,1.003082275390625,6.482757568359375,0.7424823641777039,-0.13928917050361633,-0.05048198252916336,-9.313225746154785e-10,1828.871826171875,-482.85040283203125,-16285.2548828125,-1057.4437255859375,-422.45184326171875,120.4012451171875,44.47217559814453,-0.5493625998497009,4.820909023284912
1731876819706.0,0.0,0.0,-20.0,0.0,0.0,0.0,0.0,0.0,0.0,0.0,0.0,0.0,0.0,0.0,0.0,0.843353271484375,6.4249267578125,0.7415443658828735,-0.14005568623542786,-0.05295087397098541,9.313225746154785e-10,1732.1885986328125,-291.1213073730469,-16316.1806640625,-1010.8775634765625,-518.0352783203125,-24.078771591186523,43.99900817871094,-0.5306154489517212,4.90468692779541
1731876819756.0,0.0,0.0,-20.0,0.0,0.0,0.0,0.0,0.0,0.0,0.0,0.0,0.0,0.0,0.0,0.0,0.520599365234375,6.2979736328125,0.7400311827659607,-0.1420932561159134,-0.06017715111374855,1.862645149230957e-09,1720.3232421875,-71.70462036132812,-16264.15234375,-1176.731201171875,-473.8414306640625,-18.456073760986328,44.60725402832031,-0.16557073593139648,4.512931823730469
1731876819773.0,0.0,0.0,-20.0,0.0,0.0,0.0,0.0,0.0,0.0,0.0,0.0,0.0,0.0,0.0,0.0,0.357696533203125,6.229034423828125,0.7394994497299194,-0.14270535111427307,-0.06259977072477341,0.0,1533.78662109375,32.383522033691406,-16472.732421875,-1056.4898681640625,-657.824462890625,-66.55913543701172,44.33782196044922,-0.7097258567810059,5.015282154083252
1731876819789.0,0.0,0.0,-20.0,0.0,0.0,0.0,0.0,0.0,0.0,0.0,0.0,0.0,0.0,0.0,0.0,0.19415283203125,6.15728759765625,0.7391519546508789,-0.14326049387454987,-0.06493543833494186,0.0,1838.64697265625,6.99456787109375,-16221.9755859375,-1098.143310546875,-521.7508544921875,102.32589721679688,44.07581329345703,-0.10237529873847961,4.7528510093688965
1731876819806.0,0.0,0.0,-20.0,0.0,0.0,0.0,0.0,0.0,0.0,0.0,0.0,0.0,0.0,0.0,0.0,0.02996826171875,6.0828857421875,0.7390056252479553,-0.1437840759754181,-0.06728766858577728,-9.313225746154785e-10,1854.2288818359375,23.984146118164062,-16341.3955078125,-1116.3980712890625,-640.8832397460938,-85.78703308105469,44.89371871948242,-0.466989666223526,5.078317642211914
1731876819856.0,0.0,0.0,-20.0,0.0,0.0,0.0,0.0,0.0,0.0,0.0,0.0,0.0,0.0,0.0,0.0,-0.3005831837654114,5.92340087890625,0.7393913269042969,-0.1451074630022049,-0.074195496737957,-9.313225746154785e-10,1682.455078125,240.0052490234375,-16299.841796875,-1043.576171875,-522.473388671875,-26.375917434692383,44.559600830078125,-0.96337890625,4.056979656219482
1731876819873.0,0.0,0.0,-20.0,0.0,0.0,0.0,0.0,0.0,0.0,0.0,0.0,0.0,0.0,0.0,0.0,-0.46680542826652527,5.83837890625,0.7399636507034302,-0.14546753466129303,-0.0764523521065712,9.313225746154785e-10,1648.376220703125,87.36477661132812,-16294.892578125,-1062.1011962890625,-664.7088623046875,89.60417938232422,44.724300384521484,0.1377156376838684,4.108090400695801
1731876819889.0,0.0,0.0,-20.0,0.0,0.0,0.0,0.0,0.0,0.0,0.0,0.0,0.0,0.0,0.0,0.0,-0.6334136128425598,5.750762939453125,0.7408090233802795,-0.1457919329404831,-0.07872085273265839,-9.313225746154785e-10,1687.1490478515625,151.9148406982422,-16348.9462890625,-1206.321044921875,-667.2623901367188,24.503646850585938,44.692970275878906,-0.769171953201294,4.973133087158203
1731876819906.0,0.0,0.0,-20.0,0.0,0.0,0.0,0.0,0.0,0.0,0.0,0.0,0.0,0.0,0.0,0.0,-0.8003661036491394,5.660552978515625,0.741943359375,-0.14607301354408264,-0.08095082640647888,9.313225746154785e-10,1537.190185546875,251.85597229003906,-16338.380859375,-1136.2540283203125,-610.8128051757812,-50.186607360839844,44.687862396240234,-0.13863253593444824,4.482894420623779
1731876819956.0,0.0,0.0,-20.0,0.0,0.0,0.0,0.0,0.0,0.0,0.0,0.0,0.0,0.0,0.0,0.0,-1.135327696800232,5.470062255859375,0.7451837062835693,-0.14666590094566345,-0.08742401748895645,9.313225746154785e-10,1544.2427978515625,317.1482238769531,-16271.30859375,-1022.1757202148438,-577.1911010742188,-80.11107635498047,45.02519607543945,-0.5171789526939392,4.2967376708984375
1731876819973.0,0.0,0.0,-20.0,0.0,0.0,0.0,0.0,0.0,0.0,0.0,0.0,0.0,0.0,0.0,0.0,-1.3031922578811646,5.369903564453125,0.7473249435424805,-0.1467861831188202,-0.08959165960550308,-1.862645149230957e-09,1473.13525390625,333.61187744140625,-16339.970703125,-1073.4935302734375,-590.704833984375,-59.57344436645508,44.84238815307617,-0.6682084202766418,4.215299129486084
1731876819989.0,0.0,0.0,-20.0,0.0,0.0,0.0,0.0,0.0,0.0,0.0,0.0,0.0,0.0,0.0,0.0,-1.4711652994155884,5.26727294921875,0.7498210072517395,-0.14686255156993866,-0.09167224168777466,-9.313225746154785e-10,1459.571533203125,375.3045654296875,-16399.142578125,-926.6074829101562,-699.9989624023438,126.38593292236328,44.52903366088867,-0.5801482796669006,4.11792516708374
1731876820006.0,0.0,0.0,-20.0,0.0,0.0,0.0,0.0,0.0,0.0,0.0,0.0,0.0,0.0,0.0,0.0,-1.6391973495483398,5.162261962890625,0.7526838183403015,-0.14689937233924866,-0.09377331286668777,0.0,1567.8685302734375,538.4559326171875,-16329.7177734375,-952.6719970703125,-872.9584350585938,62.32732009887695,45.34708023071289,-0.8663554787635803,4.431446075439453
1731876820039.0,0.0,0.0,-20.0,0.0,0.0,0.0,0.0,0.0,0.0,0.0,0.0,0.0,0.0,0.0,0.0,-1.8072428703308105,5.05487060546875,0.7559281587600708,-0.1468503773212433,-0.09782136976718903,1.862645149230957e-09,1494.893798828125,544.5578002929688,-16326.076171875,-853.2391967773438,-732.2739868164062,31.62453842163086,44.81109619140625,-0.21479809284210205,4.022100925445557
1731876820072.0,0.0,0.0,-20.0,0.0,0.0,0.0,0.0,0.0,0.0,0.0,0.0,0.0,0.0,0.0,0.0,-2.143023729324341,4.828460693359375,0.7637679576873779,-0.14663749933242798,-0.10180537402629852,-9.313225746154785e-10,1370.9652099609375,621.61328125,-16171.388671875,-1171.772216796875,-749.4140014648438,125.9376220703125,45.14131164550781,-0.9719740748405457,3.829185724258423
1731876820089.0,0.0,0.0,-20.0,0.0,0.0,0.0,0.0,0.0,0.0,0.0,0.0,0.0,0.0,0.0,0.0,-2.3106801509857178,4.7119140625,0.7683168053627014,-0.14647090435028076,-0.10374082624912262,0.0,1250.3511962890625,819.4702758789062,-16355.4990234375,-1217.26611328125,-721.0816650390625,-53.06223678588867,45.28755569458008,-0.5770431756973267,4.361178398132324
1731876820089.0,0.0,0.0,-20.0,0.0,0.0,0.0,0.0,0.0,0.0,0.0,0.0,0.0,0.0,0.0,0.0,-2.3106801509857178,4.7119140625,0.7683168053627014,-0.14647090435028076,-0.10374082624912262,0.0,1250.3511962890625,819.4702758789062,-16355.4990234375,-1217.26611328125,-721.0816650390625,-53.06223678588867,45.28755569458008,-0.5770431756973267,4.361178398132324
1731876820139.0,0.0,0.0,-20.0,0.0,0.0,0.0,0.0,0.0,0.0,0.0,0.0,0.0,0.0,0.0,0.0,-2.6452982425689697,4.472198486328125,0.7787268757820129,-0.14572682976722717,-0.10938702523708344,1.862645149230957e-09,1249.0113525390625,745.0789794921875,-16092.8134765625,-965.8836669921875,-768.2574462890625,-8.7703218460083,44.58138656616211,-1.0683691501617432,3.0103201866149902
1731876820156.0,0.0,0.0,-20.0,0.0,0.0,0.0,0.0,0.0,0.0,0.0,0.0,0.0,0.0,0.0,0.0,-2.811828851699829,4.34698486328125,0.7847117185592651,-0.14538860321044922,-0.11125775426626205,1.862645149230957e-09,1388.777099609375,779.0880737304688,-16309.548828125,-861.9867553710938,-764.9144287109375,-98.82142639160156,45.00111770629883,-0.8260758519172668,2.8918418884277344
1731876820173.0,0.0,0.0,-20.0,0.0,0.0,0.0,0.0,0.0,0.0,0.0,0.0,0.0,0.0,0.0,0.0,-2.977949857711792,4.21966552734375,0.7911686897277832,-0.1450222283601761,-0.11303091794252396,2.7939677238464355e-09,1139.8302001953125,853.7353515625,-16257.3134765625,-889.015869140625,-844.5919799804688,53.71684646606445,44.6159782409668,-0.670717716217041,3.264979362487793
1731876820189.0,0.0,0.0,-20.0,0.0,0.0,0.0,0.0,0.0,0.0,0.0,0.0,0.0,0.0,0.0,0.0,-3.1436305046081543,4.09033203125,0.7981027960777283,-0.14461645483970642,-0.11477338522672653,-9.313225746154785e-10,1168.9908447265625,789.505126953125,-16357.6669921875,-1004.8148193359375,-829.1076049804688,4.464817523956299,45.000858306884766,-0.6179701685905457,3.77176570892334
1731876820206.0,0.0,0.0,-20.0,0.0,0.0,0.0,0.0,0.0,0.0,0.0,0.0,0.0,0.0,0.0,0.0,-3.308828115463257,3.959014892578125,0.8055227994918823,-0.14415420591831207,-0.11654745042324066,0.0,959.259765625,756.6776123046875,-16297.9609375,-914.6034545898438,-809.1591796875,96.76461029052734,44.60551452636719,-1.0237640142440796,3.335994243621826
1731876820239.0,0.0,0.0,-20.0,0.0,0.0,0.0,0.0,0.0,0.0,0.0,0.0,0.0,0.0,0.0,0.0,-3.4734792709350586,3.82568359375,0.8134410977363586,-0.143131822347641,-0.11990853399038315,-9.313225746154785e-10,1168.409423828125,979.5086059570312,-16239.078125,-1147.4542236328125,-746.81982421875,-89.27294921875,44.70991134643555,-0.6825306415557861,3.0532963275909424
1731876820273.0,0.0,0.0,-20.0,0.0,0.0,0.0,0.0,0.0,0.0,0.0,0.0,0.0,0.0,0.0,0.0,-3.799736261367798,3.549591064453125,0.8310288190841675,-0.14195510745048523,-0.12312488257884979,2.7939677238464355e-09,890.1244506835938,1162.5699462890625,-16292.5458984375,-1079.6468505859375,-784.795654296875,-143.7379150390625,44.985687255859375,-0.7322592735290527,3.022338390350342
1731876820289.0,0.0,0.0,-20.0,0.0,0.0,0.0,0.0,0.0,0.0,0.0,0.0,0.0,0.0,0.0,0.0,-3.9618239402770996,3.4088134765625,0.8405956029891968,-0.14129820466041565,-0.124705009162426,0.0,895.1046142578125,1197.921142578125,-16152.48828125,-1145.0364990234375,-1043.9527587890625,106.38851928710938,44.72896957397461,-0.7623339295387268,2.561056137084961
1731876820306.0,0.0,0.0,-20.0,0.0,0.0,0.0,0.0,0.0,0.0,0.0,0.0,0.0,0.0,0.0,0.0,-4.123152732849121,3.266265869140625,0.8506866097450256,-0.14060115814208984,-0.126249760389328,9.313225746154785e-10,1011.61474609375,1225.5015869140625,-16406.111328125,-1022.92578125,-1103.0262451171875,101.00214385986328,44.83839797973633,-1.5013775825500488,2.524103879928589
1731876820340.0,0.0,0.0,-20.0,0.0,0.0,0.0,0.0,0.0,0.0,0.0,0.0,0.0,0.0,0.0,0.0,-4.28367805480957,3.12200927734375,0.8613072633743286,-0.13911068439483643,-0.12918920814990997,-4.656612873077393e-10,823.6080932617188,1315.4879150390625,-16409.568359375,-988.6964111328125,-839.381103515625,-68.53112030029297,45.371978759765625,-0.883341372013092,1.8741803169250488
1731876820373.0,0.0,0.0,-20.0,0.0,0.0,0.0,0.0,0.0,0.0,0.0,0.0,0.0,0.0,0.0,0.0,-4.600372791290283,2.825164794921875,0.8844000101089478,-0.13746687769889832,-0.13198621571063995,0.0,959.2191162109375,1344.61279296875,-16199.583984375,-953.5325927734375,-966.5618286132812,90.52391052246094,45.11799621582031,-0.9909713268280029,2.2600674629211426
1731876820390.0,0.0,0.0,-20.0,0.0,0.0,0.0,0.0,0.0,0.0,0.0,0.0,0.0,0.0,0.0,0.0,-4.7573065757751465,2.6744384765625,0.896751344203949,-0.1365814059972763,-0.13334012031555176,-4.656612873077393e-10,707.9873657226562,1300.277099609375,-16406.693359375,-852.4749145507812,-908.7459716796875,59.60187911987305,45.012664794921875,-0.5416053533554077,2.0808510780334473
1731876820390.0,0.0,0.0,-20.0,0.0,0.0,0.0,0.0,0.0,0.0,0.0,0.0,0.0,0.0,0.0,0.0,-4.7573065757751465,2.6744384765625,0.896751344203949,-0.1365814059972763,-0.13334012031555176,-4.656612873077393e-10,707.9873657226562,1300.277099609375,-16406.693359375,-852.4749145507812,-908.7459716796875,59.60187911987305,45.012664794921875,-0.5416053533554077,2.0808510780334473
1731876820440.0,0.0,0.0,-20.0,0.0,0.0,0.0,0.0,0.0,0.0,0.0,0.0,0.0,0.0,0.0,0.0,-5.068119525909424,2.36846923828125,0.923078715801239,-0.13369688391685486,-0.1371765285730362,-1.3969838619232178e-09,619.7518310546875,1461.6396484375,-16221.197265625,-1040.651611328125,-1078.83154296875,10.426830291748047,44.64053726196289,-1.1414828300476074,1.6110769510269165
1731876820456.0,0.0,0.0,-20.0,0.0,0.0,0.0,0.0,0.0,0.0,0.0,0.0,0.0,0.0,0.0,0.0,-5.220760822296143,2.2119140625,0.9371848702430725,-0.1326679289340973,-0.13837043941020966,0.0,521.1920166015625,1482.234619140625,-16064.4921875,-1304.8963623046875,-1084.7991943359375,17.1236629486084,45.0372428894043,-0.7138568758964539,1.546937346458435
1731876820490.0,0.0,0.0,-20.0,0.0,0.0,0.0,0.0,0.0,0.0,0.0,0.0,0.0,0.0,0.0,0.0,-5.522524356842041,1.894866943359375,0.9670190215110779,-0.13049237430095673,-0.14065159857273102,4.656612873077393e-10,480.4153137207031,1691.4383544921875,-16489.740234375,-887.7991333007812,-978.0460205078125,-15.727400779724121,44.97101593017578,-0.6935366988182068,1.353674292564392
1731876820490.0,0.0,0.0,-20.0,0.0,0.0,0.0,0.0,0.0,0.0,0.0,0.0,0.0,0.0,0.0,0.0,-5.522524356842041,1.894866943359375,0.9670190215110779,-0.13049237430095673,-0.14065159857273102,4.656612873077393e-10,480.4153137207031,1691.4383544921875,-16489.740234375,-887.7991333007812,-978.0460205078125,-15.727400779724121,44.97101593017578,-0.6935366988182068,1.353674292564392
1731876820539.0,0.0,0.0,-20.0,0.0,0.0,0.0,0.0,0.0,0.0,0.0,0.0,0.0,0.0,0.0,0.0,-5.819309711456299,1.572845458984375,0.9990129470825195,-0.12697169184684753,-0.14376895129680634,0.0,318.55633544921875,1676.25927734375,-16136.9560546875,-1028.3228759765625,-834.1581420898438,102.11029052734375,44.81925582885742,-0.21981310844421387,1.297269582748413
1731876820556.0,0.0,0.0,-20.0,0.0,0.0,0.0,0.0,0.0,0.0,0.0,0.0,0.0,0.0,0.0,0.0,-5.964369297027588,1.408966064453125,1.01593017578125,-0.12572769820690155,-0.14472919702529907,1.6298145055770874e-09,244.576416015625,1737.0333251953125,-16361.2998046875,-967.89306640625,-988.5776977539062,-9.559672355651855,44.94314956665039,-1.0334579944610596,1.3582836389541626
1731876820590.0,0.0,0.0,-20.0,0.0,0.0,0.0,0.0,0.0,0.0,0.0,0.0,0.0,0.0,0.0,0.0,-6.250260829925537,1.078094482421875,1.0513449907302856,-0.12309696525335312,-0.14655502140522003,-1.6298145055770874e-09,384.62127685546875,1949.7430419921875,-16211.3603515625,-739.6203002929688,-1103.189208984375,0.26249054074287415,45.01655578613281,-1.0997453927993774,0.42305198311805725
1731876820590.0,0.0,0.0,-20.0,0.0,0.0,0.0,0.0,0.0,0.0,0.0,0.0,0.0,0.0,0.0,0.0,-6.250260829925537,1.078094482421875,1.0513449907302856,-0.12309696525335312,-0.14655502140522003,-1.6298145055770874e-09,384.62127685546875,1949.7430419921875,-16211.3603515625,-739.6203002929688,-1103.189208984375,0.26249054074287415,45.01655578613281,-1.0997453927993774,0.42305198311805725
1731876820606.0,0.0,0.0,-20.0,0.0,0.0,0.0,0.0,0.0,0.0,0.0,0.0,0.0,0.0,0.0,0.0,-6.3909993171691895,0.91119384765625,1.0698364973068237,-0.12174910306930542,-0.14739367365837097,8.149072527885437e-10,334.8194580078125,1791.3763427734375,-16348.5078125,-796.856201171875,-1065.06103515625,-80.40524291992188,45.29428482055664,-1.4540300369262695,0.6092849373817444
1731876820656.0,0.0,0.0,-20.0,0.0,0.0,0.0,0.0,0.0,0.0,0.0,0.0,0.0,0.0,0.0,0.0,-6.666324615478516,0.57379150390625,1.108457326889038,-0.11748414486646652,-0.1496751606464386,-5.820766091346741e-11,91.36683654785156,1889.9927978515625,-16347.7890625,-1043.02734375,-1175.334716796875,-107.60917663574219,44.942054748535156,-0.6963946223258972,0.19057337939739227
1731876820673.0,0.0,0.0,-20.0,0.0,0.0,0.0,0.0,0.0,0.0,0.0,0.0,0.0,0.0,0.0,0.0,-6.800780296325684,0.403472900390625,1.1285686492919922,-0.11600391566753387,-0.1503494381904602,2.3283064365386963e-09,79.83734130859375,1755.6834716796875,-16327.5986328125,-894.35205078125,-939.400390625,-69.93356323242188,44.78804397583008,-0.8223854899406433,0.4487687945365906
1731876820690.0,0.0,0.0,-20.0,0.0,0.0,0.0,0.0,0.0,0.0,0.0,0.0,0.0,0.0,0.0,0.0,-6.933596611022949,0.232421875,1.1491692066192627,-0.11448046565055847,-0.15098676085472107,-2.3283064365386963e-10,38.37915802001953,1866.58544921875,-16374.5546875,-842.76220703125,-1345.6646728515625,68.28865814208984,44.793479919433594,-1.1173335313796997,0.5197719931602478
1731876820706.0,0.0,0.0,-20.0,0.0,0.0,0.0,0.0,0.0,0.0,0.0,0.0,0.0,0.0,0.0,0.0,-7.064727783203125,0.060699462890625,1.1702524423599243,-0.11293645203113556,-0.1515776664018631,1.0186340659856796e-09,-30.72250747680664,1992.177734375,-16048.7861328125,-860.23046875,-972.5380249023438,101.61860656738281,44.6139030456543,-0.443729043006897,-0.22499620914459229
1731876820740.0,0.0,0.0,-20.0,0.0,0.0,0.0,0.0,0.0,0.0,0.0,0.0,0.0,0.0,0.0,0.0,-7.19415283203125,-0.11165878921747208,1.1918100118637085,-0.10973167419433594,-0.1526411473751068,-1.367880031466484e-09,-38.806671142578125,1964.83740234375,-16192.08203125,-756.3523559570312,-1078.905029296875,-34.803428649902344,45.093074798583984,-1.894797444343567,-0.2845175862312317
1731876820773.0,0.0,0.0,-20.0,0.0,0.0,0.0,0.0,0.0,0.0,0.0,0.0,0.0,0.0,0.0,0.0,-7.443999767303467,-0.4591596722602844,1.2364473342895508,-0.1064165011048317,-0.15353092551231384,3.4924596548080444e-10,-276.337646484375,2189.917236328125,-16088.892578125,-729.681640625,-927.79736328125,46.79673385620117,45.14491271972656,-0.32901644706726074,-0.26837390661239624
1731876820790.0,0.0,0.0,-20.0,0.0,0.0,0.0,0.0,0.0,0.0,0.0,0.0,0.0,0.0,0.0,0.0,-7.566162586212158,-0.6335859894752502,1.2594276666641235,-0.10469550639390945,-0.1539158970117569,-2.0954757928848267e-09,-216.9070587158203,2068.623291015625,-16337.9599609375,-845.2839965820312,-1199.936767578125,-118.06092834472656,45.495418548583984,-1.2343460321426392,-0.6440510749816895
1731876820806.0,0.0,0.0,-20.0,0.0,0.0,0.0,0.0,0.0,0.0,0.0,0.0,0.0,0.0,0.0,0.0,-7.686430931091309,-0.808400571346283,1.2828364372253418,-0.10297035425901413,-0.1542525589466095,2.3283064365386963e-10,-447.519775390625,2167.742919921875,-16231.287109375,-817.1089477539062,-1156.39697265625,-30.107322692871094,45.46725082397461,-0.5131760835647583,-0.4453131854534149
1731876820840.0,0.0,0.0,-20.0,0.0,0.0,0.0,0.0,0.0,0.0,0.0,0.0,0.0,0.0,0.0,0.0,-7.8047990798950195,-0.983548104763031,1.3066623210906982,-0.09942224621772766,-0.1547999233007431,-1.5133991837501526e-09,-239.2078399658203,2294.36572265625,-16148.44140625,-615.1508178710938,-1100.48486328125,3896.6826171875,45.4703369140625,-0.47020819783210754,-1.3557915687561035
1731876820873.0,0.0,0.0,-20.0,0.0,0.0,0.0,0.0,0.0,0.0,0.0,0.0,0.0,0.0,0.0,0.0,-8.031576156616211,-1.3351768255233765,1.3555819988250732,-0.09576373547315598,-0.15517540276050568,-1.6298145055770874e-09,-346.6723937988281,2413.75732421875,-16142.6083984375,-794.5653076171875,-1009.9337158203125,-14.619794845581055,45.12339782714844,-0.825083315372467,-1.8348143100738525
1731876820890.0,0.0,0.0,-20.0,0.0,0.0,0.0,0.0,0.0,0.0,0.0,0.0,0.0,0.0,0.0,0.0,-8.141934394836426,-1.5112266540527344,1.3806037902832031,-0.09390123188495636,-0.1552981585264206,2.3283064365386963e-10,-560.3030395507812,2191.027099609375,-16073.40625,-766.913818359375,-1031.7786865234375,-78.41832733154297,44.758243560791016,-0.3539959192276001,-1.0468010902404785
1731876820890.0,0.0,0.0,-20.0,0.0,0.0,0.0,0.0,0.0,0.0,0.0,0.0,0.0,0.0,0.0,0.0,-8.141934394836426,-1.5112266540527344,1.3806037902832031,-0.09390123188495636,-0.1552981585264206,2.3283064365386963e-10,-560.3030395507812,2191.027099609375,-16073.40625,-766.913818359375,-1031.7786865234375,-78.41832733154297,44.758243560791016,-0.3539959192276001,-1.0468010902404785
1731876820940.0,0.0,0.0,-20.0,0.0,0.0,0.0,0.0,0.0,0.0,0.0,0.0,0.0,0.0,0.0,0.0,-8.356450080871582,-1.8635520935058594,1.4317091703414917,-0.088131844997406,-0.15540917217731476,3.958120942115784e-09,-351.728515625,2437.924072265625,-16172.875,-481.34649658203125,-992.119873046875,-6.1053242683410645,44.62750244140625,-0.771602213382721,-1.7361845970153809
1731876820957.0,0.0,0.0,-20.0,0.0,0.0,0.0,0.0,0.0,0.0,0.0,0.0,0.0,0.0,0.0,0.0,-8.458328247070312,-2.039724588394165,1.457762360572815,-0.08616861701011658,-0.15536001324653625,-1.6298145055770874e-09,-377.69671630859375,2522.40380859375,-16277.3330078125,-678.5891723632812,-1194.141357421875,-9.068591117858887,45.10924530029297,-1.033705472946167,-1.6505321264266968
1731876820973.0,0.0,0.0,-20.0,0.0,0.0,0.0,0.0,0.0,0.0,0.0,0.0,0.0,0.0,0.0,0.0,-8.558050155639648,-2.215794563293457,1.4841203689575195,-0.08415225893259048,-0.1552663892507553,4.656612873077393e-10,-543.4620971679688,2527.385009765625,-16176.8701171875,-669.5172729492188,-1123.6253662109375,65.71916961669922,45.07953643798828,-1.063293218612671,-2.2208151817321777
1731876820990.0,0.0,0.0,-20.0,0.0,0.0,0.0,0.0,0.0,0.0,0.0,0.0,0.0,0.0,0.0,0.0,-8.655553817749023,-2.3917133808135986,1.510768175125122,-0.08211201429367065,-0.15512865781784058,2.3283064365386963e-10,-766.6127319335938,2516.048095703125,-16182.5029296875,-568.0211791992188,-1198.310302734375,10.238728523254395,44.78960037231445,-0.6759130954742432,-2.7232413291931152
1731876821007.0,0.0,0.0,-20.0,0.0,0.0,0.0,0.0,0.0,0.0,0.0,0.0,0.0,0.0,0.0,0.0,-8.750811576843262,-2.5674309730529785,1.5376920700073242,-0.08006349205970764,-0.154948428273201,9.313225746154785e-10,-687.3535766601562,2549.406005859375,-16271.4501953125,-685.0210571289062,-1262.217041015625,22.81521987915039,45.10553741455078,-0.603463351726532,-2.133798599243164
1731876821057.0,0.0,0.0,-20.0,0.0,0.0,0.0,0.0,0.0,0.0,0.0,0.0,0.0,0.0,0.0,0.0,-8.932180404663086,-2.9177749156951904,1.5922573804855347,-0.0737859457731247,-0.1541479378938675,4.656612873077393e-10,-880.1539306640625,2383.2578125,-16040.49609375,-635.4094848632812,-1167.805419921875,26.294042587280273,44.76951599121094,-1.5239996910095215,-2.515632390975952
1731876821074.0,0.0,0.0,-20.0,0.0,0.0,0.0,0.0,0.0,0.0,0.0,0.0,0.0,0.0,0.0,0.0,-9.018178939819336,-3.092252731323242,1.6198524236679077,-0.07165136188268661,-0.1537947803735733,4.656612873077393e-10,-792.2181396484375,2581.09130859375,-16211.5869140625,-469.1499938964844,-1303.9146728515625,-49.558780670166016,44.72504425048828,-0.9313198924064636,-2.5596325397491455
1731876821090.0,0.0,0.0,-20.0,0.0,0.0,0.0,0.0,0.0,0.0,0.0,0.0,0.0,0.0,0.0,0.0,-9.101826667785645,-3.266289472579956,1.6476469039916992,-0.06949673593044281,-0.15339858829975128,-1.862645149230957e-09,-771.4967651367188,2489.305419921875,-16069.884765625,-545.0536499023438,-1171.6201171875,106.66714477539062,44.892669677734375,-0.9512928128242493,-2.397387981414795
1731876821107.0,0.0,0.0,-20.0,0.0,0.0,0.0,0.0,0.0,0.0,0.0,0.0,0.0,0.0,0.0,0.0,-9.183101654052734,-3.439838409423828,1.6756244897842407,-0.06733861565589905,-0.15296286344528198,9.313225746154785e-10,-923.3291015625,2441.4990234375,-16064.4677734375,-464.6463928222656,-969.9834594726562,51.90946960449219,45.344295501708984,-1.068285584449768,-2.181412935256958
1731876821157.0,0.0,0.0,-20.0,0.0,0.0,0.0,0.0,0.0,0.0,0.0,0.0,0.0,0.0,0.0,0.0,-9.335951805114746,-3.7847018241882324,1.7319668531417847,-0.060738999396562576,-0.15139901638031006,0.0,-1129.5916748046875,2790.072998046875,-16116.9462890625,-561.970458984375,-917.6934204101562,63.579952239990234,44.71332550048828,-0.9199182391166687,-3.0622332096099854
1731876821174.0,0.0,0.0,-20.0,0.0,0.0,0.0,0.0,0.0,0.0,0.0,0.0,0.0,0.0,0.0,0.0,-9.407465934753418,-3.9558770656585693,1.7602825164794922,-0.05849369987845421,-0.15079060196876526,-9.313225746154785e-10,-1056.64990234375,2743.829833984375,-16273.5302734375,-540.146240234375,-1182.04150390625,-41.54301071166992,44.69513702392578,-0.8580833673477173,-3.8002712726593018
1731876821190.0,0.0,0.0,-20.0,0.0,0.0,0.0,0.0,0.0,0.0,0.0,0.0,0.0,0.0,0.0,0.0,-9.476497650146484,-4.126328945159912,1.7886996269226074,-0.0562320351600647,-0.15014001727104187,-1.3969838619232178e-09,-1266.320068359375,2707.39697265625,-16111.14453125,-487.0523681640625,-951.1835327148438,20.606792449951172,44.887821197509766,-0.6398109793663025,-3.1713297367095947
1731876821207.0,0.0,0.0,-20.0,0.0,0.0,0.0,0.0,0.0,0.0,0.0,0.0,0.0,0.0,0.0,0.0,-9.543028831481934,-4.2960124015808105,1.8172014951705933,-0.053988005965948105,-0.14945785701274872,-9.313225746154785e-10,-1094.4073486328125,2777.85595703125,-15947.2890625,-340.91119384765625,-869.2296752929688,16.198762893676758,44.0755615234375,-0.7748674154281616,-3.7405357360839844
1731876821224.0,0.0,0.0,-20.0,0.0,0.0,0.0,0.0,0.0,0.0,0.0,0.0,0.0,0.0,0.0,0.0,-9.607076644897461,-4.464892387390137,1.8457732200622559,-0.05167895555496216,-0.14871858060359955,4.656612873077393e-10,-1254.2686767578125,2835.583984375,-16047.87890625,-511.2396545410156,-975.4902954101562,76.33888244628906,45.02788543701172,-0.9275113940238953,-3.505676746368408
1731876821274.0,0.0,0.0,-20.0,0.0,0.0,0.0,0.0,0.0,0.0,0.0,0.0,0.0,0.0,0.0,0.0,-9.724845886230469,-4.799098968505859,1.902889609336853,-0.04471771419048309,-0.14626768231391907,-9.313225746154785e-10,-1313.73876953125,2628.472412109375,-16146.8984375,-353.5824890136719,-1205.0706787109375,56.166587829589844,44.34040832519531,-0.6410862803459167,-4.115330219268799
1731876821290.0,0.0,0.0,-20.0,0.0,0.0,0.0,0.0,0.0,0.0,0.0,0.0,0.0,0.0,0.0,0.0,-9.77851390838623,-4.964287281036377,1.931382417678833,-0.042405758053064346,-0.14538203179836273,1.862645149230957e-09,-1382.306884765625,2625.870361328125,-16063.796875,-240.8995819091797,-1161.2965087890625,149.8101806640625,44.164615631103516,-0.694607675075531,-3.7916951179504395
1731876821307.0,0.0,0.0,-20.0,0.0,0.0,0.0,0.0,0.0,0.0,0.0,0.0,0.0,0.0,0.0,0.0,-9.82961368560791,-5.128450393676758,1.9598606824874878,-0.04008227959275246,-0.1444568932056427,-6.984919309616089e-10,-1464.715087890625,2890.08935546875,-16190.4580078125,-191.8873291015625,-1021.6251220703125,-6.704990863800049,44.61931610107422,-0.8241117596626282,-4.3560404777526855
1731876821324.0,0.0,0.0,-20.0,0.0,0.0,0.0,0.0,0.0,0.0,0.0,0.0,0.0,0.0,0.0,0.0,-9.87812614440918,-5.291543960571289,1.9883073568344116,-0.03769592568278313,-0.1434706151485443,2.3283064365386963e-10,-1526.3046875,2998.046630859375,-16127.3369140625,-280.4310607910156,-1043.404052734375,46.041099548339844,44.53432846069336,-0.5820837020874023,-4.655068874359131
1731876821357.0,0.0,0.0,-20.0,0.0,0.0,0.0,0.0,0.0,0.0,0.0,0.0,0.0,0.0,0.0,0.0,-9.923982620239258,-5.453500747680664,2.0167009830474854,-0.03294423967599869,-0.14139989018440247,-1.3969838619232178e-09,-1746.37451171875,2650.859130859375,-16275.833984375,-403.7553405761719,-1003.058837890625,20.348466873168945,44.643131256103516,-0.9278040528297424,-4.632719993591309
1731876821391.0,0.0,0.0,-20.0,0.0,0.0,0.0,0.0,0.0,0.0,0.0,0.0,0.0,0.0,0.0,0.0,-10.002224922180176,-5.771437168121338,2.0728232860565186,-0.028120769187808037,-0.13915525376796722,2.3283064365386963e-10,-1734.72705078125,2548.379638671875,-15966.3837890625,-349.1209411621094,-961.2318725585938,3.829102039337158,44.849849700927734,-0.9555521607398987,-5.1318359375
1731876821407.0,0.0,0.0,-20.0,0.0,0.0,0.0,0.0,0.0,0.0,0.0,0.0,0.0,0.0,0.0,0.0,-10.037290573120117,-5.928465366363525,2.100712776184082,-0.02577626146376133,-0.13801322877407074,-1.3969838619232178e-09,-1607.913330078125,2838.357421875,-16186.2587890625,-180.009521484375,-918.8096923828125,-14.574149131774902,44.847694396972656,-0.7193900346755981,-5.223217010498047
1731876821424.0,0.0,0.0,-20.0,0.0,0.0,0.0,0.0,0.0,0.0,0.0,0.0,0.0,0.0,0.0,0.0,-10.069732666015625,-6.084188938140869,2.1284730434417725,-0.023301025852560997,-0.13677182793617249,9.313225746154785e-10,-1724.0186767578125,2914.491455078125,-15972.6328125,-198.8300018310547,-850.8731689453125,13.806510925292969,44.93183135986328,-1.102667212486267,-4.742917537689209
1731876821457.0,0.0,0.0,-20.0,0.0,0.0,0.0,0.0,0.0,0.0,0.0,0.0,0.0,0.0,0.0,0.0,-10.099395751953125,-6.23849630355835,2.156076192855835,-0.01845540665090084,-0.13423652946949005,-3.4924596548080444e-10,-1708.3873291015625,2760.501708984375,-15886.826171875,-181.42405700683594,-1242.6700439453125,-36.66163635253906,45.35420608520508,-0.8102858066558838,-5.130246162414551
1731876821490.0,0.0,0.0,-20.0,0.0,0.0,0.0,0.0,0.0,0.0,0.0,0.0,0.0,0.0,0.0,0.0,-10.144923210144043,-6.539856433868408,2.210216760635376,-0.013607148081064224,-0.13156229257583618,-8.149072527885437e-10,-1974.8597412109375,2892.109619140625,-16023.560546875,-146.0589599609375,-927.3533325195312,38.98114013671875,44.47342300415039,-0.6678493022918701,-5.550477981567383
1731876821507.0,0.0,0.0,-20.0,0.0,0.0,0.0,0.0,0.0,0.0,0.0,0.0,0.0,0.0,0.0,0.0,-10.163599014282227,-6.688253879547119,2.236973524093628,-0.011141298338770866,-0.13014982640743256,8.149072527885437e-10,-1951.042724609375,3029.041748046875,-15966.4423828125,-138.1703643798828,-1079.7142333984375,-60.77473449707031,44.48017883300781,-0.7378734350204468,-5.988311767578125
1731876821507.0,0.0,0.0,-20.0,0.0,0.0,0.0,0.0,0.0,0.0,0.0,0.0,0.0,0.0,0.0,0.0,-10.163599014282227,-6.688253879547119,2.236973524093628,-0.011141298338770866,-0.13014982640743256,8.149072527885437e-10,-1951.042724609375,3029.041748046875,-15966.4423828125,-138.1703643798828,-1079.7142333984375,-60.77473449707031,44.48017883300781,-0.7378734350204468,-5.988311767578125
1731876821557.0,0.0,0.0,-20.0,0.0,0.0,0.0,0.0,0.0,0.0,0.0,0.0,0.0,0.0,0.0,0.0,-10.192646980285645,-6.9802422523498535,2.289773941040039,-0.0038172141648828983,-0.12574833631515503,-1.8189894035458565e-09,-1892.16015625,2899.201171875,-16164.0966796875,-56.06203842163086,-1098.782958984375,-60.666927337646484,43.9617919921875,-0.5526788234710693,-5.635549068450928
1731876821574.0,0.0,0.0,-20.0,0.0,0.0,0.0,0.0,0.0,0.0,0.0,0.0,0.0,0.0,0.0,0.0,-10.200177192687988,-7.122062683105469,2.315476655960083,-0.0013788135256618261,-0.1242147758603096,2.291926648467779e-09,-2104.4228515625,2892.96044921875,-16041.4033203125,-42.7541389465332,-824.7567749023438,-57.813316345214844,44.63359069824219,-0.349379301071167,-5.820241451263428
1731876821607.0,0.0,0.0,-20.0,0.0,0.0,0.0,0.0,0.0,0.0,0.0,0.0,0.0,0.0,0.0,0.0,-10.206887245178223,-7.400444507598877,2.365992307662964,0.0035343095660209656,-0.12102154642343521,2.735760062932968e-09,-2265.956787109375,2896.080078125,-15866.3466796875,-33.82042694091797,-886.3392333984375,-5.906306266784668,44.37400817871094,-0.5966792106628418,-5.751595973968506
1731876821607.0,0.0,0.0,-20.0,0.0,0.0,0.0,0.0,0.0,0.0,0.0,0.0,0.0,0.0,0.0,0.0,-10.206887245178223,-7.400444507598877,2.365992307662964,0.0035343095660209656,-0.12102154642343521,2.735760062932968e-09,-2265.956787109375,2896.080078125,-15866.3466796875,-33.82042694091797,-886.3392333984375,-5.906306266784668,44.37400817871094,-0.5966792106628418,-5.751595973968506
1731876821657.0,0.0,0.0,-20.0,0.0,0.0,0.0,0.0,0.0,0.0,0.0,0.0,0.0,0.0,0.0,0.0,-10.20242977142334,-7.671560287475586,2.415225028991699,0.01085910014808178,-0.11600431799888611,1.0477378964424133e-09,-2187.896240234375,2738.362060546875,-16222.66796875,173.19058227539062,-954.1832885742188,49.476539611816406,44.57172775268555,-1.1560697555541992,-5.601108074188232
1731876821674.0,0.0,0.0,-20.0,0.0,0.0,0.0,0.0,0.0,0.0,0.0,0.0,0.0,0.0,0.0,0.0,-10.193182945251465,-7.802392482757568,2.438976287841797,0.01328963041305542,-0.11427129805088043,-2.3283064365386963e-10,-2118.892333984375,2795.41064453125,-16027.6748046875,26.56914710998535,-873.1456909179688,10.797540664672852,44.354576110839844,-0.8450941443443298,-6.666049480438232
1731876821690.0,0.0,0.0,-20.0,0.0,0.0,0.0,0.0,0.0,0.0,0.0,0.0,0.0,0.0,0.0,0.0,-10.181154251098633,-7.931272983551025,2.462355852127075,0.015698667615652084,-0.11251989006996155,2.3283064365386963e-10,-2257.288330078125,2844.486572265625,-15944.091796875,168.34059143066406,-981.3469848632812,33.24355697631836,44.532081604003906,-0.4057985842227936,-6.238276958465576
1731876821707.0,0.0,0.0,-20.0,0.0,0.0,0.0,0.0,0.0,0.0,0.0,0.0,0.0,0.0,0.0,0.0,-10.166363716125488,-8.058182716369629,2.485354423522949,0.018139030784368515,-0.11071129888296127,-6.984919309616089e-10,-2367.977783203125,2894.843017578125,-16267.67578125,128.78680419921875,-725.7652587890625,49.30363845825195,44.8610954284668,-0.9307579398155212,-6.0554280281066895
1731876821724.0,0.0,0.0,-20.0,0.0,0.0,0.0,0.0,0.0,0.0,0.0,0.0,0.0,0.0,0.0,0.0,-10.148770332336426,-8.183060646057129,2.5079545974731445,0.02055656723678112,-0.1088852733373642,-4.656612873077393e-10,-2337.575439453125,2976.485595703125,-16048.5068359375,179.83547973632812,-869.001708984375,11.448972702026367,44.70488739013672,-0.3500485420227051,-6.50525426864624
1731876821758.0,0.0,0.0,-20.0,0.0,0.0,0.0,0.0,0.0,0.0,0.0,0.0,0.0,0.0,0.0,0.0,-10.128396034240723,-8.305885314941406,2.5301477909088135,0.02547994814813137,-0.10505985468626022,9.313225746154785e-10,-2392.363525390625,2918.3486328125,-15982.9150390625,199.5684051513672,-621.236572265625,-21.541955947875977,44.13814926147461,-1.1256438493728638,-6.8696112632751465
1731876821791.0,0.0,0.0,-20.0,0.0,0.0,0.0,0.0,0.0,0.0,0.0,0.0,0.0,0.0,0.0,0.0,-10.073469161987305,-8.540787696838379,2.572453498840332,0.030286258086562157,-0.10118547081947327,-2.7939677238464355e-09,-2438.946533203125,2632.004638671875,-15917.8037109375,258.5144348144531,-778.2264404296875,48.45089340209961,43.92105484008789,-1.3092213869094849,-7.058355808258057
1731876821808.0,0.0,0.0,-20.0,0.0,0.0,0.0,0.0,0.0,0.0,0.0,0.0,0.0,0.0,0.0,0.0,-10.041824340820312,-8.654955863952637,2.59293270111084,0.03268588334321976,-0.09919856488704681,-4.656612873077393e-10,-2430.338134765625,2809.02001953125,-15965.447265625,295.56671142578125,-688.174072265625,17.836559295654297,44.55337142944336,-0.5967778563499451,-6.741049289703369
1731876821824.0,0.0,0.0,-20.0,0.0,0.0,0.0,0.0,0.0,0.0,0.0,0.0,0.0,0.0,0.0,0.0,-10.007402420043945,-8.76689338684082,2.6129512786865234,0.03505894914269447,-0.0971987396478653,1.3969838619232178e-09,-2535.54248046875,2943.86474609375,-16101.4892578125,365.63055419921875,-761.4359130859375,-31.34128761291504,44.649349212646484,-0.9510394334793091,-6.931206703186035
1731876821858.0,0.0,0.0,-20.0,0.0,0.0,0.0,0.0,0.0,0.0,0.0,0.0,0.0,0.0,0.0,0.0,-9.970224380493164,-8.8765869140625,2.6325018405914307,0.0398099459707737,-0.09308885782957077,-9.313225746154785e-10,-2350.042236328125,2935.02197265625,-16087.4013671875,296.569091796875,-689.186279296875,-20.688636779785156,44.24723815917969,-0.597041130065918,-7.326005458831787
1731876821891.0,0.0,0.0,-20.0,0.0,0.0,0.0,0.0,0.0,0.0,0.0,0.0,0.0,0.0,0.0,0.0,-9.882031440734863,-9.084373474121094,2.669318675994873,0.0445164255797863,-0.08887486159801483,1.3969838619232178e-09,-2773.234375,2794.681396484375,-15847.494140625,444.7862548828125,-752.7625732421875,27.34332847595215,44.471614837646484,-1.149986743927002,-7.112964153289795
1731876821908.0,0.0,0.0,-20.0,0.0,0.0,0.0,0.0,0.0,0.0,0.0,0.0,0.0,0.0,0.0,0.0,-9.833824157714844,-9.184712409973145,2.686978816986084,0.046817321330308914,-0.08676177263259888,0.0,-2646.111572265625,2800.02392578125,-15963.435546875,268.98138427734375,-737.1002807617188,5.155161380767822,44.578285217285156,-0.6374778151512146,-7.688026428222656
1731876821908.0,0.0,0.0,-20.0,0.0,0.0,0.0,0.0,0.0,0.0,0.0,0.0,0.0,0.0,0.0,0.0,-9.833824157714844,-9.184712409973145,2.686978816986084,0.046817321330308914,-0.08676177263259888,0.0,-2646.111572265625,2800.02392578125,-15963.435546875,268.98138427734375,-737.1002807617188,5.155161380767822,44.578285217285156,-0.6374778151512146,-7.688026428222656
1731876821958.0,0.0,0.0,-20.0,0.0,0.0,0.0,0.0,0.0,0.0,0.0,0.0,0.0,0.0,0.0,0.0,-9.729320526123047,-9.378216743469238,2.72078537940979,0.05374140292406082,-0.08018595725297928,-1.862645149230957e-09,-2480.6640625,2582.52880859375,-15838.931640625,332.876953125,-372.3103332519531,-4.108809471130371,44.09871292114258,-0.6073999404907227,-7.300235748291016
1731876821974.0,0.0,0.0,-20.0,0.0,0.0,0.0,0.0,0.0,0.0,0.0,0.0,0.0,0.0,0.0,0.0,-9.670306205749512,-9.468790054321289,2.736478805541992,0.05602022632956505,-0.07794833183288574,-9.313225746154785e-10,-2805.87548828125,2691.27197265625,-15912.01171875,369.89447021484375,-613.03857421875,15.12268352508545,44.341636657714844,-1.3017196655273438,-7.200969696044922
1731876822008.0,0.0,0.0,-20.0,0.0,0.0,0.0,0.0,0.0,0.0,0.0,0.0,0.0,0.0,0.0,0.0,-9.544271469116211,-9.642375946044922,2.7662785053253174,0.06049755960702896,-0.0734417736530304,2.7939677238464355e-09,-2605.063720703125,2548.473876953125,-15762.5107421875,467.2802734375,-557.5891723632812,-9.819756507873535,43.91250991821289,-1.127859115600586,-7.80161190032959
1731876822008.0,0.0,0.0,-20.0,0.0,0.0,0.0,0.0,0.0,0.0,0.0,0.0,0.0,0.0,0.0,0.0,-9.544271469116211,-9.642375946044922,2.7662785053253174,0.06049755960702896,-0.0734417736530304,2.7939677238464355e-09,-2605.063720703125,2548.473876953125,-15762.5107421875,467.2802734375,-557.5891723632812,-9.819756507873535,43.91250991821289,-1.127859115600586,-7.80161190032959
1731876822058.0,0.0,0.0,-20.0,0.0,0.0,0.0,0.0,0.0,0.0,0.0,0.0,0.0,0.0,0.0,0.0,-9.407702445983887,-9.805755615234375,2.793949842453003,0.06713483482599258,-0.06648027896881104,0.0,-2687.2265625,2638.86376953125,-15929.068359375,464.693359375,-547.0048217773438,71.32318115234375,44.28175354003906,-1.151519536972046,-7.972603797912598
1731876822075.0,0.0,0.0,-20.0,0.0,0.0,0.0,0.0,0.0,0.0,0.0,0.0,0.0,0.0,0.0,0.0,-9.332923889160156,-9.880919456481934,2.8065385818481445,0.06932634860277176,-0.06410443782806396,9.313225746154785e-10,-2801.462890625,2624.86083984375,-15867.8037109375,404.0643310546875,-516.99169921875,65.69862365722656,44.23765563964844,-0.8524964451789856,-8.465890884399414
1731876822108.0,0.0,0.0,-20.0,0.0,0.0,0.0,0.0,0.0,0.0,0.0,0.0,0.0,0.0,0.0,0.0,-9.175639152526855,-10.023238182067871,2.830085039138794,0.07360319048166275,-0.05935147777199745,9.313225746154785e-10,-2995.590576171875,2726.211669921875,-15983.46484375,574.0556640625,-560.4525146484375,35.41414260864258,44.338504791259766,-1.0492397546768188,-7.762794494628906
1731876822108.0,0.0,0.0,-20.0,0.0,0.0,0.0,0.0,0.0,0.0,0.0,0.0,0.0,0.0,0.0,0.0,-9.175639152526855,-10.023238182067871,2.830085039138794,0.07360319048166275,-0.05935147777199745,9.313225746154785e-10,-2995.590576171875,2726.211669921875,-15983.46484375,574.0556640625,-560.4525146484375,35.41414260864258,44.338504791259766,-1.0492397546768188,-7.762794494628906
1731876822158.0,0.0,0.0,-20.0,0.0,0.0,0.0,0.0,0.0,0.0,0.0,0.0,0.0,0.0,0.0,0.0,-9.008294105529785,-10.154844284057617,2.85148024559021,0.07988628000020981,-0.05207331106066704,9.313225746154785e-10,-2708.79638671875,2468.948974609375,-15884.4169921875,517.4617309570312,-332.43634033203125,-17.716758728027344,44.427555084228516,-1.150266408920288,-8.906197547912598
1731876822175.0,0.0,0.0,-20.0,0.0,0.0,0.0,0.0,0.0,0.0,0.0,0.0,0.0,0.0,0.0,0.0,-8.918420791625977,-10.213786125183105,2.8609259128570557,0.08192186057567596,-0.04963520169258118,0.0,-2842.291748046875,2718.743408203125,-15958.07421875,508.9259948730469,-283.87451171875,-41.67425537109375,44.62650680541992,-0.4960053861141205,-7.929183006286621
1731876822191.0,0.0,0.0,-20.0,0.0,0.0,0.0,0.0,0.0,0.0,0.0,0.0,0.0,0.0,0.0,0.0,-8.826129913330078,-10.26998233795166,2.869840621948242,0.08392014354467392,-0.0472014844417572,-1.862645149230957e-09,-2993.8115234375,2578.821044921875,-15953.8037109375,527.4114379882812,-233.58908081054688,-90.37267303466797,44.35012435913086,-0.6056779623031616,-7.524089813232422
1731876822208.0,0.0,0.0,-20.0,0.0,0.0,0.0,0.0,0.0,0.0,0.0,0.0,0.0,0.0,0.0,0.0,-8.731463432312012,-10.32343864440918,2.878230571746826,0.08592472225427628,-0.04471861943602562,0.0,-3081.69140625,2540.578857421875,-15858.1748046875,549.6510620117188,-279.5406494140625,-10.991754531860352,44.388031005859375,-0.7749208211898804,-8.281182289123535
1731876822224.0,0.0,0.0,-20.0,0.0,0.0,0.0,0.0,0.0,0.0,0.0,0.0,0.0,0.0,0.0,0.0,-8.63441276550293,-10.374094009399414,2.886094331741333,0.08787653595209122,-0.04225975275039673,-1.862645149230957e-09,-3009.387451171875,2490.142333984375,-16116.923828125,608.7643432617188,-330.6443176269531,31.146696090698242,44.23957443237305,-1.0042728185653687,-8.436251640319824
1731876822274.0,0.0,0.0,-20.0,0.0,0.0,0.0,0.0,0.0,0.0,0.0,0.0,0.0,0.0,0.0,0.0,-8.431063652038574,-10.464200019836426,2.8998470306396484,0.0936419814825058,-0.03474302962422371,1.862645149230957e-09,-2781.264892578125,2533.40185546875,-15962.20703125,642.569580078125,-303.9042663574219,-32.212158203125,44.19112014770508,-1.0303080081939697,-7.9918413162231445
1731876822291.0,0.0,0.0,-20.0,0.0,0.0,0.0,0.0,0.0,0.0,0.0,0.0,0.0,0.0,0.0,0.0,-8.324830055236816,-10.503585815429688,2.9057462215423584,0.09553533047437668,-0.032186344265937805,0.0,-2977.733642578125,2353.008544921875,-16136.67578125,615.6842041015625,-245.89244079589844,15.774580001831055,44.43247604370117,-1.1143321990966797,-8.416889190673828
1731876822308.0,0.0,0.0,-20.0,0.0,0.0,0.0,0.0,0.0,0.0,0.0,0.0,0.0,0.0,0.0,0.0,-8.216339111328125,-10.540085792541504,2.911142110824585,0.09737472236156464,-0.02965777926146984,-1.862645149230957e-09,-2915.683837890625,2454.753662109375,-15894.306640625,624.7600708007812,-343.1434326171875,10.008949279785156,44.263587951660156,-0.847590982913971,-8.495556831359863
1731876822324.0,0.0,0.0,-20.0,0.0,0.0,0.0,0.0,0.0,0.0,0.0,0.0,0.0,0.0,0.0,0.0,-8.105656623840332,-10.573726654052734,2.9160497188568115,0.09918729215860367,-0.0271210428327322,0.0,-2945.02294921875,2200.138427734375,-15746.5263671875,815.5892333984375,-167.1101531982422,-69.70011138916016,44.5617790222168,-0.7739344239234924,-8.532370567321777
1731876822358.0,0.0,0.0,-20.0,0.0,0.0,0.0,0.0,0.0,0.0,0.0,0.0,0.0,0.0,0.0,0.0,-7.992808818817139,-10.604496955871582,2.9204771518707275,0.10274270176887512,-0.0220070518553257,1.862645149230957e-09,-2971.27734375,2299.060302734375,-16001.7626953125,770.6555786132812,-122.73159790039062,138.24200439453125,44.76319885253906,-1.0994824171066284,-8.591300010681152
1731876822391.0,0.0,0.0,-20.0,0.0,0.0,0.0,0.0,0.0,0.0,0.0,0.0,0.0,0.0,0.0,0.0,-7.756549835205078,-10.651511192321777,2.9270968437194824,0.10619643330574036,-0.01684976927936077,1.862645149230957e-09,-3075.5517578125,1996.4427490234375,-16123.208984375,726.6067504882812,-159.03453063964844,-45.63724136352539,44.49617004394531,-1.3732661008834839,-8.590985298156738
1731876822408.0,0.0,0.0,-20.0,0.0,0.0,0.0,0.0,0.0,0.0,0.0,0.0,0.0,0.0,0.0,0.0,-7.6353440284729,-10.670646667480469,2.9297282695770264,0.10785464942455292,-0.0143014807254076,0.0,-2853.058349609375,2055.910888671875,-15909.748046875,770.8480224609375,15.240252494812012,-28.135393142700195,43.82364273071289,-0.7435811758041382,-9.426044464111328
1731876822408.0,0.0,0.0,-20.0,0.0,0.0,0.0,0.0,0.0,0.0,0.0,0.0,0.0,0.0,0.0,0.0,-7.6353440284729,-10.670646667480469,2.9297282695770264,0.10785464942455292,-0.0143014807254076,0.0,-2853.058349609375,2055.910888671875,-15909.748046875,770.8480224609375,15.240252494812012,-28.135393142700195,43.82364273071289,-0.7435811758041382,-9.426044464111328
1731876822458.0,0.0,0.0,-20.0,0.0,0.0,0.0,0.0,0.0,0.0,0.0,0.0,0.0,0.0,0.0,0.0,-7.386987209320068,-10.700175285339355,2.9336936473846436,0.112720787525177,-0.006522355601191521,1.862645149230957e-09,-2965.53076171875,2190.991455078125,-15861.509765625,895.1526489257812,-43.798641204833984,40.91057586669922,44.25735092163086,-1.142826795578003,-8.830926895141602
1731876822475.0,0.0,0.0,-20.0,0.0,0.0,0.0,0.0,0.0,0.0,0.0,0.0,0.0,0.0,0.0,0.0,-7.257997989654541,-10.707590103149414,2.9346632957458496,0.11429163813591003,-0.003905732184648514,1.862645149230957e-09,-3117.9228515625,1914.446533203125,-16041.486328125,818.4129638671875,-79.02107238769531,89.5380630493164,43.96891403198242,-1.526259422302246,-8.657437324523926
1731876822508.0,0.0,0.0,-20.0,0.0,0.0,0.0,0.0,0.0,0.0,0.0,0.0,0.0,0.0,0.0,0.0,-6.99446439743042,-10.71353816986084,2.9354236125946045,0.11729245632886887,0.001254211412742734,3.725290298461914e-09,-3024.83056640625,1754.521484375,-15937.7607421875,766.3343505859375,82.373779296875,-127.61619567871094,44.31857681274414,-1.0032341480255127,-8.24361801147461
1731876822508.0,0.0,0.0,-20.0,0.0,0.0,0.0,0.0,0.0,0.0,0.0,0.0,0.0,0.0,0.0,0.0,-6.99446439743042,-10.71353816986084,2.9354236125946045,0.11729245632886887,0.001254211412742734,3.725290298461914e-09,-3024.83056640625,1754.521484375,-15937.7607421875,766.3343505859375,82.373779296875,-127.61619567871094,44.31857681274414,-1.0032341480255127,-8.24361801147461
1731876822525.0,0.0,0.0,-20.0,0.0,0.0,0.0,0.0,0.0,0.0,0.0,0.0,0.0,0.0,0.0,0.0,-6.860024452209473,-10.71211051940918,2.9352471828460693,0.11877625435590744,0.00389091856777668,0.0,-3013.40478515625,1979.5042724609375,-15956.40234375,793.3126831054688,-4.707025051116943,31.4381103515625,44.694454193115234,-1.182241678237915,-8.284797668457031
1731876822575.0,0.0,0.0,-20.0,0.0,0.0,0.0,0.0,0.0,0.0,0.0,0.0,0.0,0.0,0.0,0.0,-6.584257125854492,-10.697364807128906,2.933485269546509,0.12295212596654892,0.011658858507871628,0.0,-3104.794921875,2044.3646240234375,-16123.578125,999.7667236328125,46.65599060058594,-8.754948616027832,44.13867950439453,-1.281200885772705,-8.557977676391602
1731876822592.0,0.0,0.0,-20.0,0.0,0.0,0.0,0.0,0.0,0.0,0.0,0.0,0.0,0.0,0.0,0.0,-6.44307804107666,-10.684091567993164,2.931942939758301,0.1242697685956955,0.014230050146579742,1.862645149230957e-09,-3040.574462890625,1786.0560302734375,-15946.080078125,1118.9842529296875,121.34800720214844,28.76026725769043,43.99074172973633,-1.2706382274627686,-8.58527660369873
1731876822608.0,0.0,0.0,-20.0,0.0,0.0,0.0,0.0,0.0,0.0,0.0,0.0,0.0,0.0,0.0,0.0,-6.3003339767456055,-10.667885780334473,2.930101156234741,0.12556250393390656,0.01681618019938469,0.0,-2984.872314453125,1737.2001953125,-16065.98828125,897.8198852539062,115.38703918457031,-19.052841186523438,44.17616271972656,-1.8942692279815674,-8.135940551757812
1731876822625.0,0.0,0.0,-20.0,0.0,0.0,0.0,0.0,0.0,0.0,0.0,0.0,0.0,0.0,0.0,0.0,-6.156056880950928,-10.648730278015137,2.927973985671997,0.12681102752685547,0.0193787794560194,0.0,-3068.947509765625,1737.1026611328125,-15932.876953125,971.3894653320312,250.86595153808594,11.843610763549805,43.878944396972656,-1.3775590658187866,-8.595377922058105
1731876822675.0,0.0,0.0,-20.0,0.0,0.0,0.0,0.0,0.0,0.0,0.0,0.0,0.0,0.0,0.0,0.0,-5.86168098449707,-10.598695755004883,2.9226229190826416,0.13036216795444489,0.027069086208939552,-1.862645149230957e-09,-3018.049072265625,1595.689697265625,-16019.298828125,948.10498046875,226.53492736816406,61.61265563964844,43.723426818847656,-1.0825719833374023,-8.392245292663574
1731876822692.0,0.0,0.0,-20.0,0.0,0.0,0.0,0.0,0.0,0.0,0.0,0.0,0.0,0.0,0.0,0.0,-5.711711883544922,-10.567835807800293,2.919440984725952,0.13148440420627594,0.02964322827756405,3.725290298461914e-09,-3213.23291015625,1647.07470703125,-16060.8037109375,933.5874633789062,230.4260711669922,25.64565658569336,44.14549255371094,-1.543459415435791,-8.686165809631348
1731876822708.0,0.0,0.0,-20.0,0.0,0.0,0.0,0.0,0.0,0.0,0.0,0.0,0.0,0.0,0.0,0.0,-5.560420989990234,-10.53403091430664,2.916048049926758,0.13256162405014038,0.032190412282943726,1.862645149230957e-09,-3066.51904296875,1596.3795166015625,-16175.9140625,954.4166259765625,290.9282531738281,39.219547271728516,44.731876373291016,-1.3954486846923828,-8.526946067810059
1731876822725.0,0.0,0.0,-20.0,0.0,0.0,0.0,0.0,0.0,0.0,0.0,0.0,0.0,0.0,0.0,0.0,-5.407862186431885,-10.497312545776367,2.9124622344970703,0.13360172510147095,0.034728579223155975,0.0,-2980.45263671875,1660.82080078125,-16142.0029296875,779.2927856445312,235.90945434570312,78.41057586669922,44.10648727416992,-1.7569987773895264,-8.366604804992676
1731876822759.0,0.0,0.0,-20.0,0.0,0.0,0.0,0.0,0.0,0.0,0.0,0.0,0.0,0.0,0.0,0.0,-5.254081726074219,-10.45768928527832,2.9087021350860596,0.13556963205337524,0.03977508470416069,1.862645149230957e-09,-2974.65673828125,1360.90380859375,-16054.0888671875,1027.4400634765625,362.171630859375,-68.70902252197266,43.950462341308594,-1.578894853591919,-8.290342330932617
1731876822792.0,0.0,0.0,-20.0,0.0,0.0,0.0,0.0,0.0,0.0,0.0,0.0,0.0,0.0,0.0,0.0,-4.94079065322876,-10.364049911499023,2.9002132415771484,0.1373731642961502,0.04474076256155968,0.0,-2932.97509765625,1414.569580078125,-15975.9892578125,781.2245483398438,247.9529571533203,-47.74932861328125,44.29019546508789,-0.905582070350647,-8.173603057861328
1731876822809.0,0.0,0.0,-20.0,0.0,0.0,0.0,0.0,0.0,0.0,0.0,0.0,0.0,0.0,0.0,0.0,-4.78257942199707,-10.312965393066406,2.895796298980713,0.13823041319847107,0.04724159091711044,-1.862645149230957e-09,-2924.951904296875,1279.6009521484375,-15986.2216796875,854.7759399414062,273.1991882324219,75.75927734375,43.617679595947266,-1.6242226362228394,-8.208184242248535
1731876822825.0,0.0,0.0,-20.0,0.0,0.0,0.0,0.0,0.0,0.0,0.0,0.0,0.0,0.0,0.0,0.0,-4.623373508453369,-10.259012222290039,2.8912851810455322,0.1390368491411209,0.049693066626787186,0.0,-2985.339111328125,1334.2681884765625,-16037.173828125,1094.14697265625,436.87200927734375,47.722694396972656,43.95912170410156,-1.8087923526763916,-7.5954670906066895
1731876822858.0,0.0,0.0,-20.0,0.0,0.0,0.0,0.0,0.0,0.0,0.0,0.0,0.0,0.0,0.0,0.0,-4.463235378265381,-10.202248573303223,2.886702060699463,0.1405293494462967,0.054536499083042145,1.862645149230957e-09,-2957.914306640625,1322.2679443359375,-16304.4384765625,1167.659912109375,474.8607482910156,-23.51866340637207,44.28036117553711,-1.7088725566864014,-8.802534103393555
1731876822892.0,0.0,0.0,-20.0,0.0,0.0,0.0,0.0,0.0,0.0,0.0,0.0,0.0,0.0,0.0,0.0,-4.138648509979248,-10.074820518493652,2.876969814300537,0.1418820321559906,0.05937284603714943,0.0,-2959.188232421875,1144.199462890625,-16078.2890625,1057.5513916015625,458.1628723144531,28.301179885864258,44.60019302368164,-1.8839248418807983,-7.7175774574279785
1731876822909.0,0.0,0.0,-20.0,0.0,0.0,0.0,0.0,0.0,0.0,0.0,0.0,0.0,0.0,0.0,0.0,-3.9752116203308105,-10.006954193115234,2.872081995010376,0.1425032764673233,0.061783865094184875,-1.862645149230957e-09,-2859.72119140625,1006.7861328125,-16224.9375,1254.4560546875,462.24383544921875,156.22056579589844,43.979915618896484,-1.9610263109207153,-8.326220512390137
1731876822925.0,0.0,0.0,-20.0,0.0,0.0,0.0,0.0,0.0,0.0,0.0,0.0,0.0,0.0,0.0,0.0,-3.8110697269439697,-9.936318397521973,2.8672008514404297,0.14308007061481476,0.0641600713133812,1.862645149230957e-09,-2829.927001953125,1029.311767578125,-15879.1787109375,1275.68798828125,468.80291748046875,55.16581344604492,44.21787643432617,-1.3204641342163086,-7.541273593902588
1731876822959.0,0.0,0.0,-20.0,0.0,0.0,0.0,0.0,0.0,0.0,0.0,0.0,0.0,0.0,0.0,0.0,-3.646277666091919,-9.862951278686523,2.8623476028442383,0.1441064178943634,0.06882396340370178,-1.862645149230957e-09,-2833.83642578125,806.1927490234375,-16079.9169921875,845.003173828125,377.271240234375,-50.785980224609375,44.51618957519531,-1.6718907356262207,-7.682929992675781
1731876822992.0,0.0,0.0,-20.0,0.0,0.0,0.0,0.0,0.0,0.0,0.0,0.0,0.0,0.0,0.0,0.0,-3.313807964324951,-9.70285415649414,2.852471351623535,0.14498260617256165,0.07346215099096298,0.0,-2633.908203125,984.9301147460938,-16221.02734375,1287.3441162109375,575.6826782226562,-75.59378814697266,44.349952697753906,-1.946583867073059,-7.869782447814941
1731876823009.0,0.0,0.0,-20.0,0.0,0.0,0.0,0.0,0.0,0.0,0.0,0.0,0.0,0.0,0.0,0.0,-3.146862745285034,-9.618805885314941,2.8476595878601074,0.14535559713840485,0.07572568207979202,1.862645149230957e-09,-2836.343017578125,965.16943359375,-16081.611328125,967.2424926757812,501.14019775390625,39.276729583740234,44.23474884033203,-1.717975378036499,-7.077660083770752
1731876823009.0,0.0,0.0,-20.0,0.0,0.0,0.0,0.0,0.0,0.0,0.0,0.0,0.0,0.0,0.0,0.0,-3.146862745285034,-9.618805885314941,2.8476595878601074,0.14535559713840485,0.07572568207979202,1.862645149230957e-09,-2836.343017578125,965.16943359375,-16081.611328125,967.2424926757812,501.14019775390625,39.276729583740234,44.23474884033203,-1.717975378036499,-7.077660083770752
1731876823059.0,0.0,0.0,-20.0,0.0,0.0,0.0,0.0,0.0,0.0,0.0,0.0,0.0,0.0,0.0,0.0,-2.8118114471435547,-9.442903518676758,2.838379383087158,0.14623558521270752,0.08240467309951782,0.0,-2959.91015625,857.3929443359375,-16264.9765625,1054.5692138671875,530.8758544921875,-72.92948913574219,44.91371536254883,-1.750401496887207,-7.583690643310547
1731876823075.0,0.0,0.0,-20.0,0.0,0.0,0.0,0.0,0.0,0.0,0.0,0.0,0.0,0.0,0.0,0.0,-2.643494129180908,-9.348583221435547,2.833824872970581,0.14644896984100342,0.08459677547216415,-3.725290298461914e-09,-2616.52294921875,802.1725463867188,-16241.1572265625,1241.26025390625,620.2115478515625,27.989953994750977,44.172183990478516,-1.9439144134521484,-7.470328330993652
1731876823109.0,0.0,0.0,-20.0,0.0,0.0,0.0,0.0,0.0,0.0,0.0,0.0,0.0,0.0,0.0,0.0,-2.3062801361083984,-9.152400016784668,2.825237512588501,0.14675192534923553,0.0888938456773758,0.0,-2330.46728515625,570.0708618164062,-16369.5341796875,1371.0146484375,830.535888671875,-49.751651763916016,44.40107345581055,-1.9750369787216187,-6.853532791137695
1731876823109.0,0.0,0.0,-20.0,0.0,0.0,0.0,0.0,0.0,0.0,0.0,0.0,0.0,0.0,0.0,0.0,-2.3062801361083984,-9.152400016784668,2.825237512588501,0.14675192534923553,0.0888938456773758,0.0,-2330.46728515625,570.0708618164062,-16369.5341796875,1371.0146484375,830.535888671875,-49.751651763916016,44.40107345581055,-1.9750369787216187,-6.853532791137695
1731876823159.0,0.0,0.0,-20.0,0.0,0.0,0.0,0.0,0.0,0.0,0.0,0.0,0.0,0.0,0.0,0.0,-1.9686206579208374,-8.946370124816895,2.8174543380737305,0.14690068364143372,0.0951753780245781,-1.862645149230957e-09,-2505.61962890625,489.4773254394531,-16282.84765625,957.6500244140625,830.5316772460938,22.55933380126953,44.70473861694336,-1.6346696615219116,-6.925778865814209
1731876823176.0,0.0,0.0,-20.0,0.0,0.0,0.0,0.0,0.0,0.0,0.0,0.0,0.0,0.0,0.0,0.0,-1.799723744392395,-8.83736515045166,2.8138253688812256,0.1468684822320938,0.09720197319984436,0.0,-2347.621826171875,406.32489013671875,-16309.6787109375,1336.8375244140625,633.90234375,40.739986419677734,44.4894905090332,-2.136899709701538,-7.245632171630859
1731876823209.0,0.0,0.0,-20.0,0.0,0.0,0.0,0.0,0.0,0.0,0.0,0.0,0.0,0.0,0.0,0.0,-1.4622271060943604,-8.612378120422363,2.807347297668457,0.14668266475200653,0.10117421299219131,0.0,-2454.976318359375,273.365478515625,-16214.5732421875,1171.596435546875,838.990478515625,61.677642822265625,44.38901901245117,-1.980791687965393,-6.600417137145996
1731876823209.0,0.0,0.0,-20.0,0.0,0.0,0.0,0.0,0.0,0.0,0.0,0.0,0.0,0.0,0.0,0.0,-1.4622271060943604,-8.612378120422363,2.807347297668457,0.14668266475200653,0.10117421299219131,0.0,-2454.976318359375,273.365478515625,-16214.5732421875,1171.596435546875,838.990478515625,61.677642822265625,44.38901901245117,-1.980791687965393,-6.600417137145996
1731876823259.0,0.0,0.0,-20.0,0.0,0.0,0.0,0.0,0.0,0.0,0.0,0.0,0.0,0.0,0.0,0.0,-1.1254444122314453,-8.378301620483398,2.8020060062408447,0.14609341323375702,0.10697720944881439,3.725290298461914e-09,-2462.379150390625,212.47662353515625,-16232.5263671875,1136.1300048828125,794.1849365234375,26.664817810058594,44.592586517333984,-1.7482879161834717,-6.490792274475098
1731876823276.0,0.0,0.0,-20.0,0.0,0.0,0.0,0.0,0.0,0.0,0.0,0.0,0.0,0.0,0.0,0.0,-0.9577080011367798,-8.255736351013184,2.7997543811798096,0.14581552147865295,0.10884761810302734,1.862645149230957e-09,-2314.81640625,310.5220947265625,-16138.765625,1046.544189453125,905.5777587890625,-63.40883255004883,44.6893196105957,-1.5140941143035889,-6.141503810882568
1731876823309.0,0.0,0.0,-20.0,0.0,0.0,0.0,0.0,0.0,0.0,0.0,0.0,0.0,0.0,0.0,0.0,-0.6233870387077332,-8.004222869873047,2.7962522506713867,0.14514578878879547,0.11245731264352798,1.862645149230957e-09,-2079.58447265625,276.70867919921875,-16184.6318359375,1077.122802734375,964.3314208984375,54.52469253540039,44.61054992675781,-1.9818018674850464,-6.8367600440979
1731876823309.0,0.0,0.0,-20.0,0.0,0.0,0.0,0.0,0.0,0.0,0.0,0.0,0.0,0.0,0.0,0.0,-0.6233870387077332,-8.004222869873047,2.7962522506713867,0.14514578878879547,0.11245731264352798,1.862645149230957e-09,-2079.58447265625,276.70867919921875,-16184.6318359375,1077.122802734375,964.3314208984375,54.52469253540039,44.61054992675781,-1.9818018674850464,-6.8367600440979
1731876823359.0,0.0,0.0,-20.0,0.0,0.0,0.0,0.0,0.0,0.0,0.0,0.0,0.0,0.0,0.0,0.0,-0.29090794920921326,-7.744459629058838,2.794163465499878,0.14383453130722046,0.11767088621854782,0.0,-2075.092041015625,95.3971176147461,-16346.3486328125,946.3558349609375,759.1533203125,-81.19017791748047,44.57954025268555,-2.0097079277038574,-5.365365028381348
1731876823376.0,0.0,0.0,-20.0,0.0,0.0,0.0,0.0,0.0,0.0,0.0,0.0,0.0,0.0,0.0,0.0,-0.12601955235004425,-7.609619617462158,2.793668746948242,0.14330710470676422,0.11937659978866577,0.0,-2128.204345703125,-37.29148483276367,-16221.33203125,891.7672729492188,1117.9705810546875,32.275421142578125,44.7457389831543,-1.928844928741455,-6.218937397003174
1731876823392.0,0.0,0.0,-20.0,0.0,0.0,0.0,0.0,0.0,0.0,0.0,0.0,0.0,0.0,0.0,0.0,0.0382080078125,-7.472824573516846,2.793562889099121,0.14275111258029938,0.12101224809885025,1.862645149230957e-09,-1969.7841796875,15.838750839233398,-16262.994140625,1253.259033203125,914.6466674804688,33.6396369934082,44.05647277832031,-2.517714738845825,-5.8041510581970215
1731876823409.0,0.0,0.0,-20.0,0.0,0.0,0.0,0.0,0.0,0.0,0.0,0.0,0.0,0.0,0.0,0.0,0.201751708984375,-7.334155559539795,2.7938554286956787,0.1421602964401245,0.12260289490222931,0.0,-2158.720458984375,-39.65483093261719,-16140.83984375,1071.061767578125,765.8280029296875,13.015619277954102,44.60934829711914,-2.495763063430786,-5.443510055541992
1731876823425.0,0.0,0.0,-20.0,0.0,0.0,0.0,0.0,0.0,0.0,0.0,0.0,0.0,0.0,0.0,0.0,0.36456298828125,-7.193663597106934,2.794555902481079,0.14152608811855316,0.12417162209749222,0.0,-2113.323974609375,147.76422119140625,-16195.275390625,1046.510009765625,829.3186645507812,156.3204803466797,44.44316864013672,-2.338257074356079,-6.160604476928711
1731876823476.0,0.0,0.0,-20.0,0.0,0.0,0.0,0.0,0.0,0.0,0.0,0.0,0.0,0.0,0.0,0.0,0.68701171875,-6.905594348907471,2.7972261905670166,0.13937315344810486,0.128702774643898,0.0,-1869.201416015625,-61.93067932128906,-16193.87109375,1054.253662109375,1034.7852783203125,-54.851715087890625,44.45624542236328,-1.9968197345733643,-5.536895275115967
1731876823492.0,0.0,0.0,-20.0,0.0,0.0,0.0,0.0,0.0,0.0,0.0,0.0,0.0,0.0,0.0,0.0,0.846466064453125,-6.758124351501465,2.7992138862609863,0.1385713368654251,0.13015207648277283,0.0,-1841.6041259765625,-206.05020141601562,-16207.013671875,1115.4998779296875,1065.7342529296875,13.325653076171875,45.00050735473633,-2.307492256164551,-4.821676731109619
1731876823509.0,0.0,0.0,-20.0,0.0,0.0,0.0,0.0,0.0,0.0,0.0,0.0,0.0,0.0,0.0,0.0,1.004974365234375,-6.609001159667969,2.8016397953033447,0.1377551108598709,0.13152408599853516,9.313225746154785e-10,-1867.78173828125,-267.2652893066406,-16532.080078125,1270.958251953125,989.4762573242188,42.63849639892578,44.7313346862793,-2.36810302734375,-5.2880449295043945
1731876823526.0,0.0,0.0,-20.0,0.0,0.0,0.0,0.0,0.0,0.0,0.0,0.0,0.0,0.0,0.0,0.0,1.162506103515625,-6.45831298828125,2.804508924484253,0.13684339821338654,0.1329493373632431,1.862645149230957e-09,-1809.0615234375,-226.71168518066406,-16459.23046875,1096.786376953125,1283.104248046875,-58.173728942871094,44.84012985229492,-2.1523184776306152,-5.151038646697998
1731876823576.0,0.0,0.0,-20.0,0.0,0.0,0.0,0.0,0.0,0.0,0.0,0.0,0.0,0.0,0.0,0.0,1.4732666015625,-6.150760650634766,2.811634063720703,0.1340433955192566,0.1367557793855667,0.0,-1738.6856689453125,-589.3165283203125,-16491.654296875,975.738037109375,1087.2598876953125,-62.623836517333984,45.08159255981445,-2.067542791366577,-5.185436248779297
1731876823592.0,0.0,0.0,-20.0,0.0,0.0,0.0,0.0,0.0,0.0,0.0,0.0,0.0,0.0,0.0,0.0,1.62640380859375,-5.994107246398926,2.815896511077881,0.13301950693130493,0.13797150552272797,0.0,-1824.58154296875,-358.6593322753906,-16332.9560546875,1031.256591796875,981.5327758789062,52.791744232177734,44.57547378540039,-2.067700147628784,-4.24160623550415
1731876823609.0,0.0,0.0,-20.0,0.0,0.0,0.0,0.0,0.0,0.0,0.0,0.0,0.0,0.0,0.0,0.0,1.778350830078125,-5.836074352264404,2.8206186294555664,0.13196630775928497,0.13914018869400024,0.0,-1608.025146484375,-538.8190307617188,-15961.7734375,778.0274047851562,983.3468627929688,34.71881866455078,44.9075927734375,-1.8161334991455078,-4.184399604797363
1731876823626.0,0.0,0.0,-20.0,0.0,0.0,0.0,0.0,0.0,0.0,0.0,0.0,0.0,0.0,0.0,0.0,1.929046630859375,-5.67671537399292,2.8258025646209717,0.1308685839176178,0.14027869701385498,0.0,-1642.6033935546875,-452.6034851074219,-16425.62109375,923.4882202148438,1220.921142578125,70.95448303222656,44.85551452636719,-2.0945286750793457,-4.030496597290039
1731876823659.0,0.0,0.0,-20.0,0.0,0.0,0.0,0.0,0.0,0.0,0.0,0.0,0.0,0.0,0.0,0.0,2.078460693359375,-5.516066551208496,2.8314499855041504,0.12857232987880707,0.1424301117658615,9.313225746154785e-10,-1622.866455078125,-676.0272827148438,-16239.1455078125,930.1170043945312,864.752685546875,27.10886001586914,44.831050872802734,-2.3036537170410156,-4.344241619110107
1731876823692.0,0.0,0.0,-20.0,0.0,0.0,0.0,0.0,0.0,0.0,0.0,0.0,0.0,0.0,0.0,0.0,2.37054443359375,-5.188709735870361,2.8442254066467285,0.12610571086406708,0.14444442093372345,-1.862645149230957e-09,-1377.955810546875,-503.783447265625,-16196.4130859375,944.9652099609375,1333.193603515625,12.865419387817383,44.84336471557617,-2.2283244132995605,-3.7892627716064453
1731876823709.0,0.0,0.0,-20.0,0.0,0.0,0.0,0.0,0.0,0.0,0.0,0.0,0.0,0.0,0.0,0.0,2.514434814453125,-5.023339748382568,2.8513076305389404,0.12483745813369751,0.1453767865896225,-9.313225746154785e-10,-1355.1656494140625,-601.090087890625,-16458.8046875,702.052978515625,920.2589721679688,-28.915122985839844,44.944480895996094,-2.670290231704712,-3.310093402862549
1731876823709.0,0.0,0.0,-20.0,0.0,0.0,0.0,0.0,0.0,0.0,0.0,0.0,0.0,0.0,0.0,0.0,2.514434814453125,-5.023339748382568,2.8513076305389404,0.12483745813369751,0.1453767865896225,-9.313225746154785e-10,-1355.1656494140625,-601.090087890625,-16458.8046875,702.052978515625,920.2589721679688,-28.915122985839844,44.944480895996094,-2.670290231704712,-3.310093402862549
1731876823759.0,0.0,0.0,-20.0,0.0,0.0,0.0,0.0,0.0,0.0,0.0,0.0,0.0,0.0,0.0,0.0,2.797760009765625,-4.689512729644775,2.8668532371520996,0.12080731987953186,0.14794421195983887,-9.313225746154785e-10,-1354.7923583984375,-726.181640625,-16348.8076171875,897.85400390625,1057.37646484375,3.4615719318389893,44.7768440246582,-2.3754184246063232,-3.812744140625
1731876823776.0,0.0,0.0,-20.0,0.0,0.0,0.0,0.0,0.0,0.0,0.0,0.0,0.0,0.0,0.0,0.0,2.935516357421875,-4.520193099975586,2.875359296798706,0.11940313130617142,0.14871428906917572,-1.862645149230957e-09,-1286.9091796875,-1075.1318359375,-16385.060546875,894.4800415039062,929.0965576171875,-8.387855529785156,44.78464126586914,-2.166201114654541,-3.230321168899536
1731876823809.0,0.0,0.0,-20.0,0.0,0.0,0.0,0.0,0.0,0.0,0.0,0.0,0.0,0.0,0.0,0.0,3.20611572265625,-4.179015159606934,2.8937184810638428,0.11648554354906082,0.15013618767261505,-9.313225746154785e-10,-1143.5655517578125,-746.006591796875,-16250.4013671875,852.8755493164062,1078.619140625,-89.53800964355469,44.578826904296875,-1.9071385860443115,-3.085876226425171
1731876823809.0,0.0,0.0,-20.0,0.0,0.0,0.0,0.0,0.0,0.0,0.0,0.0,0.0,0.0,0.0,0.0,3.20611572265625,-4.179015159606934,2.8937184810638428,0.11648554354906082,0.15013618767261505,-9.313225746154785e-10,-1143.5655517578125,-746.006591796875,-16250.4013671875,852.8755493164062,1078.619140625,-89.53800964355469,44.578826904296875,-1.9071385860443115,-3.085876226425171
1731876823859.0,0.0,0.0,-20.0,0.0,0.0,0.0,0.0,0.0,0.0,0.0,0.0,0.0,0.0,0.0,0.0,3.469940185546875,-3.8347678184509277,2.913849353790283,0.11187345534563065,0.1519540399312973,0.0,-1084.3072509765625,-890.8749389648438,-16306.736328125,807.5191650390625,1306.6229248046875,-30.485578536987305,45.10359573364258,-2.4365005493164062,-3.333730459213257
1731876823876.0,0.0,0.0,-20.0,0.0,0.0,0.0,0.0,0.0,0.0,0.0,0.0,0.0,0.0,0.0,0.0,3.597412109375,-3.6609716415405273,2.924604654312134,0.11024195700883865,0.15248578786849976,-1.862645149230957e-09,-1069.2711181640625,-995.5103149414062,-16139.7822265625,763.4088745117188,1355.02294921875,79.72577667236328,45.28296661376953,-2.496121883392334,-2.616417169570923
1731876823892.0,0.0,0.0,-20.0,0.0,0.0,0.0,0.0,0.0,0.0,0.0,0.0,0.0,0.0,0.0,0.0,3.723052978515625,-3.4865927696228027,2.935781717300415,0.10862702131271362,0.15296024084091187,4.656612873077393e-10,-1002.0549926757812,-905.5612182617188,-16514.978515625,843.8593139648438,1060.21533203125,-41.22907257080078,44.89173889160156,-2.099543571472168,-2.3789284229278564
1731876823909.0,0.0,0.0,-20.0,0.0,0.0,0.0,0.0,0.0,0.0,0.0,0.0,0.0,0.0,0.0,0.0,3.84686279296875,-3.3116953372955322,2.9473726749420166,0.10695800185203552,0.153399258852005,9.313225746154785e-10,-1022.9166259765625,-1062.36865234375,-16258.302734375,707.943603515625,1239.3983154296875,-5.832942485809326,44.269798278808594,-2.2707743644714355,-2.1611618995666504
1731876823926.0,0.0,0.0,-20.0,0.0,0.0,0.0,0.0,0.0,0.0,0.0,0.0,0.0,0.0,0.0,0.0,3.96875,-3.136322021484375,2.959371328353882,0.10525906831026077,0.15379536151885986,0.0,-813.492919921875,-1177.2657470703125,-16285.1904296875,674.6272583007812,1214.754638671875,-68.6034927368164,44.897335052490234,-2.31510066986084,-2.5237410068511963
1731876823976.0,0.0,0.0,-20.0,0.0,0.0,0.0,0.0,0.0,0.0,0.0,0.0,0.0,0.0,0.0,0.0,4.20465087890625,-2.783984899520874,2.9845852851867676,0.100013867020607,0.15472166240215302,-2.3283064365386963e-09,-711.5880737304688,-1223.1165771484375,-16308.7626953125,740.7869873046875,1307.8009033203125,-25.85366439819336,45.29587173461914,-3.3295464515686035,-1.9534109830856323
1731876823993.0,0.0,0.0,-20.0,0.0,0.0,0.0,0.0,0.0,0.0,0.0,0.0,0.0,0.0,0.0,0.0,4.31866455078125,-2.607177257537842,2.997775077819824,0.0981738269329071,0.15494877099990845,-4.656612873077393e-10,-727.5673217773438,-1300.3134765625,-16420.59765625,786.7084350585938,1156.298828125,28.65094757080078,44.913455963134766,-2.913052558898926,-1.6428930759429932
1731876824009.0,0.0,0.0,-20.0,0.0,0.0,0.0,0.0,0.0,0.0,0.0,0.0,0.0,0.0,0.0,0.0,4.4305419921875,-2.430136203765869,3.0113320350646973,0.09634615480899811,0.15512776374816895,-1.1641532182693481e-09,-718.8031005859375,-1235.9063720703125,-16364.697265625,711.696533203125,1023.8892211914062,-39.54397201538086,44.896976470947266,-2.697492837905884,-1.4397367238998413
1731876824026.0,0.0,0.0,-20.0,0.0,0.0,0.0,0.0,0.0,0.0,0.0,0.0,0.0,0.0,0.0,0.0,4.5404052734375,-2.252917528152466,3.0252459049224854,0.09449192881584167,0.15526404976844788,-1.862645149230957e-09,-819.0846557617188,-1164.576904296875,-16461.712890625,707.4848022460938,1204.476806640625,113.49436950683594,44.751983642578125,-2.9045865535736084,-1.916288137435913
1731876824076.0,0.0,0.0,-20.0,0.0,0.0,0.0,0.0,0.0,0.0,0.0,0.0,0.0,0.0,0.0,0.0,4.75152587890625,-1.8980830907821655,3.054107666015625,0.08873220533132553,0.15541569888591766,-4.656612873077393e-10,-676.0908203125,-1283.949951171875,-16517.8203125,713.4002685546875,1222.8428955078125,-21.914165496826172,44.954254150390625,-2.375389337539673,-1.8109184503555298
1731876824093.0,0.0,0.0,-20.0,0.0,0.0,0.0,0.0,0.0,0.0,0.0,0.0,0.0,0.0,0.0,0.0,4.852752685546875,-1.7206149101257324,3.0690243244171143,0.0867619439959526,0.15537932515144348,-9.313225746154785e-10,-502.3289794921875,-1443.264892578125,-16221.107421875,625.1700439453125,941.1331787109375,33.75661849975586,45.09943389892578,-2.6633663177490234,-1.5049748420715332
1731876824109.0,0.0,0.0,-20.0,0.0,0.0,0.0,0.0,0.0,0.0,0.0,0.0,0.0,0.0,0.0,0.0,4.95172119140625,-1.5432146787643433,3.0842456817626953,0.08479670435190201,0.15530095994472504,-2.0954757928848267e-09,-346.3033142089844,-1223.9569091796875,-16425.76171875,689.9615478515625,1047.1424560546875,-127.76626586914062,44.77758026123047,-2.8157923221588135,-1.10736083984375
1731876824126.0,0.0,0.0,-20.0,0.0,0.0,0.0,0.0,0.0,0.0,0.0,0.0,0.0,0.0,0.0,0.0,5.048492431640625,-1.365930199623108,3.0997612476348877,0.08274918794631958,0.15517620742321014,0.0,-260.2914733886719,-1465.71826171875,-16390.359375,501.6200866699219,1364.7353515625,-85.92939758300781,45.3105354309082,-2.635993242263794,-0.8571599125862122
1731876824159.0,0.0,0.0,-20.0,0.0,0.0,0.0,0.0,0.0,0.0,0.0,0.0,0.0,0.0,0.0,0.0,5.142974853515625,-1.1888140439987183,3.1155591011047363,0.07867413759231567,0.15480293333530426,8.149072527885437e-10,-310.33758544921875,-1520.5921630859375,-16175.2744140625,582.1508178710938,1342.747314453125,-83.22879791259766,44.873722076416016,-2.643718957901001,-0.6367289423942566
1731876824193.0,0.0,0.0,-20.0,0.0,0.0,0.0,0.0,0.0,0.0,0.0,0.0,0.0,0.0,0.0,0.0,5.320343017578125,-0.8357963562011719,3.1478915214538574,0.07451239228248596,0.15425896644592285,9.313225746154785e-10,-105.50480651855469,-1585.7952880859375,-16350.556640625,565.332275390625,1240.88134765625,-96.50980377197266,44.49259948730469,-2.353543519973755,0.36650940775871277
1731876824209.0,0.0,0.0,-20.0,0.0,0.0,0.0,0.0,0.0,0.0,0.0,0.0,0.0,0.0,0.0,0.0,5.405517578125,-0.6598024368286133,3.164414405822754,0.07243160903453827,0.1539284586906433,1.7462298274040222e-09,-215.987548828125,-1613.2470703125,-16214.53515625,470.51898193359375,1002.15771484375,-113.62432098388672,45.13102722167969,-2.782043933868408,-0.3053734302520752
1731876824226.0,0.0,0.0,-20.0,0.0,0.0,0.0,0.0,0.0,0.0,0.0,0.0,0.0,0.0,0.0,0.0,5.48834228515625,-0.4842098355293274,3.1811587810516357,0.07026848942041397,0.15354499220848083,1.949956640601158e-09,-284.1357727050781,-1557.592041015625,-16198.7490234375,548.7203979492188,1336.790283203125,49.96888732910156,45.23222732543945,-2.118234872817993,0.1872246265411377
1731876824259.0,0.0,0.0,-20.0,0.0,0.0,0.0,0.0,0.0,0.0,0.0,0.0,0.0,0.0,0.0,0.0,5.568756103515625,-0.30907872319221497,3.198110818862915,0.06588301807641983,0.1526474952697754,1.7239472072105855e-09,-173.10964965820312,-1546.922607421875,-16390.787109375,410.5960693359375,1179.296142578125,48.30583190917969,44.950557708740234,-2.8634917736053467,-0.25519227981567383
1731876824293.0,0.0,0.0,-20.0,0.0,0.0,0.0,0.0,0.0,0.0,0.0,0.0,0.0,0.0,0.0,0.0,5.7171630859375,0.038482666015625,3.232456684112549,0.06145535409450531,0.1515851467847824,-1.5425030142068863e-09,83.65371704101562,-1465.1636962890625,-16297.1162109375,346.70257568359375,1119.3646240234375,72.45013427734375,44.944435119628906,-2.0891311168670654,0.9879391193389893
1731876824310.0,0.0,0.0,-20.0,0.0,0.0,0.0,0.0,0.0,0.0,0.0,0.0,0.0,0.0,0.0,0.0,5.787628173828125,0.211334228515625,3.249866485595703,0.059231843799352646,0.15099477767944336,-1.3969838619232178e-09,-2.9451980590820312,-1530.177490234375,-16358.8935546875,440.8493957519531,1108.5142822265625,29.48041534423828,44.70497512817383,-2.5804741382598877,0.3069888949394226
1731876824310.0,0.0,0.0,-20.0,0.0,0.0,0.0,0.0,0.0,0.0,0.0,0.0,0.0,0.0,0.0,0.0,5.787628173828125,0.211334228515625,3.249866485595703,0.059231843799352646,0.15099477767944336,-1.3969838619232178e-09,-2.9451980590820312,-1530.177490234375,-16358.8935546875,440.8493957519531,1108.5142822265625,29.48041534423828,44.70497512817383,-2.5804741382598877,0.3069888949394226
1731876824360.0,0.0,0.0,-20.0,0.0,0.0,0.0,0.0,0.0,0.0,0.0,0.0,0.0,0.0,0.0,0.0,5.9210205078125,0.554840087890625,3.2850944995880127,0.052415572106838226,0.1489584892988205,1.3387762010097504e-09,258.484375,-1630.6646728515625,-16163.232421875,449.3582458496094,1153.3057861328125,50.93831253051758,45.01079177856445,-1.980279803276062,0.7028098702430725
1731876824393.0,0.0,0.0,-20.0,0.0,0.0,0.0,0.0,0.0,0.0,0.0,0.0,0.0,0.0,0.0,0.0,6.038970947265625,0.893524169921875,3.3205759525299072,0.04779704287648201,0.1473923623561859,-9.89530235528946e-10,244.34605407714844,-1862.5577392578125,-16285.1552734375,243.83392333984375,956.3177490234375,109.36614990234375,44.775997161865234,-2.1219372749328613,1.0377510786056519
1731876824410.0,0.0,0.0,-20.0,0.0,0.0,0.0,0.0,0.0,0.0,0.0,0.0,0.0,0.0,0.0,0.0,6.09405517578125,1.06146240234375,3.338428258895874,0.045484453439712524,0.1465536504983902,4.0745362639427185e-10,260.12628173828125,-1629.773681640625,-16316.0595703125,316.8309631347656,1144.6031494140625,73.53396606445312,44.58809280395508,-2.4484121799468994,1.3027273416519165
1731876824410.0,0.0,0.0,-20.0,0.0,0.0,0.0,0.0,0.0,0.0,0.0,0.0,0.0,0.0,0.0,0.0,6.09405517578125,1.06146240234375,3.338428258895874,0.045484453439712524,0.1465536504983902,4.0745362639427185e-10,260.12628173828125,-1629.773681640625,-16316.0595703125,316.8309631347656,1144.6031494140625,73.53396606445312,44.58809280395508,-2.4484121799468994,1.3027273416519165
1731876824460.0,0.0,0.0,-20.0,0.0,0.0,0.0,0.0,0.0,0.0,0.0,0.0,0.0,0.0,0.0,0.0,6.196380615234375,1.3944091796875,3.374286413192749,0.038474030792713165,0.14379620552062988,-7.566995918750763e-10,239.33448791503906,-1603.9073486328125,-16233.6259765625,389.6171569824219,1026.1246337890625,12.293773651123047,44.86761474609375,-2.554412841796875,0.855144739151001
1731876824493.0,0.0,0.0,-20.0,0.0,0.0,0.0,0.0,0.0,0.0,0.0,0.0,0.0,0.0,0.0,0.0,6.28277587890625,1.720855712890625,3.4099950790405273,0.03372887149453163,0.14175152778625488,1.0477378964424133e-09,543.6165771484375,-1987.7685546875,-16349.7587890625,255.809814453125,1095.43359375,118.7762451171875,44.787113189697266,-2.5812408924102783,1.874253273010254
1731876824510.0,0.0,0.0,-20.0,0.0,0.0,0.0,0.0,0.0,0.0,0.0,0.0,0.0,0.0,0.0,0.0,6.321990966796875,1.882293701171875,3.427835464477539,0.0313156358897686,0.1406579166650772,-8.731149137020111e-10,669.2042846679688,-1829.2110595703125,-16126.5947265625,210.59971618652344,953.0565795898438,53.78354263305664,44.42170333862305,-2.6355373859405518,2.2997961044311523
1731876824510.0,0.0,0.0,-20.0,0.0,0.0,0.0,0.0,0.0,0.0,0.0,0.0,0.0,0.0,0.0,0.0,6.321990966796875,1.882293701171875,3.427835464477539,0.0313156358897686,0.1406579166650772,-8.731149137020111e-10,669.2042846679688,-1829.2110595703125,-16126.5947265625,210.59971618652344,953.0565795898438,53.78354263305664,44.42170333862305,-2.6355373859405518,2.2997961044311523
1731876824560.0,0.0,0.0,-20.0,0.0,0.0,0.0,0.0,0.0,0.0,0.0,0.0,0.0,0.0,0.0,0.0,6.39227294921875,2.201416015625,3.4634125232696533,0.024131501093506813,0.13719241321086884,5.238689482212067e-10,569.330322265625,-1757.126220703125,-16279.466796875,182.44332885742188,1125.666015625,-61.92076110839844,44.782684326171875,-2.380413293838501,2.0344736576080322
1731876824576.0,0.0,0.0,-20.0,0.0,0.0,0.0,0.0,0.0,0.0,0.0,0.0,0.0,0.0,0.0,0.0,6.420623779296875,2.357635498046875,3.4809682369232178,0.021740339696407318,0.13597038388252258,-1.1641532182693481e-10,621.552978515625,-1811.761962890625,-16204.2744140625,131.5126495361328,895.2295532226562,10.372276306152344,44.759639739990234,-2.600336790084839,2.782095193862915
1731876824609.0,0.0,0.0,-20.0,0.0,0.0,0.0,0.0,0.0,0.0,0.0,0.0,0.0,0.0,0.0,0.0,6.469207763671875,2.66583251953125,3.5158207416534424,0.016887521371245384,0.13338667154312134,-1.1641532182693481e-10,735.6265869140625,-1720.6475830078125,-16083.275390625,158.0611572265625,1164.78564453125,14.549093246459961,44.443328857421875,-2.883540391921997,2.968153238296509
