ts,linPos_x,linPos_y,linPos_z,linVel_x,linVel_y,linVel_z,linAcc_x,linAcc_y,linAcc_z,force_x,force_y,force_z,torque_x,torque_y,torque_z,euler_x,euler_y,euler_z,angVel_x,angVel_y,angVel_z,accelerometer_x,accelerometer_y,accelerometer_z,gyroscope_x,gyroscope_y,gyroscope_z,magnetometer_x,magnetometer_y,magnetometer_z
1731877049650.0,0.0,0.0,-20.0,0.0,0.0,0.0,0.0,0.0,0.0,0.0,0.0,0.0,0.0,0.0,0.0,0.0,0.0,0.0,0.0,0.0,0.0,-1.6032805442810059,11.693048477172852,-16328.7744140625,20.183820724487305,-3.370882987976074,9.553557395935059,44.51893997192383,0.07205488532781601,-0.27543526887893677
1731877049667.0,0.0,0.0,-20.0,0.0,0.0,0.0,0.0,0.0,0.0,0.0,0.0,0.0,0.0,0.0,0.0,0.0,0.0,0.0,0.0,0.0,0.0,-141.2040252685547,-191.60044860839844,-16432.04296875,161.65945434570312,77.36711883544922,-41.51359176635742,45.39741516113281,-0.3585812449455261,-0.2680096924304962
1731877049683.0,0.0,0.0,-20.0,0.0,0.0,0.0,0.0,0.0,0.0,0.0,0.0,0.0,0.0,0.0,0.0,0.0,0.0,0.0,0.0,0.0,0.0,37.9410285949707,164.765869140625,-16407.84765625,39.77525329589844,-149.25918579101562,18.21691131591797,45.39112091064453,-0.14512217044830322,-0.22491715848445892
1731877049717.0,0.0,0.0,-20.0,0.0,0.0,0.0,0.0,0.0,0.0,0.0,0.0,0.0,0.0,0.0,0.0,0.0,0.0,0.0,0.0,0.0,0.0,64.385986328125,-151.83258056640625,-16546.7890625,16.65745735168457,-140.48382568359375,-19.20475196838379,44.6610221862793,0.05321197956800461,-0.06359747052192688
1731877049750.0,0.0,0.0,-20.0,0.0,0.0,0.0,0.0,0.0,0.0,0.0,0.0,0.0,0.0,0.0,0.0,0.0,0.0,0.0,0.0,0.0,0.0,43.12550735473633,32.650848388671875,-16348.6474609375,128.59689331054688,8.205780029296875,-9.192326545715332,44.79658126831055,0.0288056842982769,0.20041683316230774
1731877049767.0,0.0,0.0,-20.0,0.0,0.0,0.0,0.0,0.0,0.0,0.0,0.0,0.0,0.0,0.0,0.0,0.0,0.0,0.0,0.0,0.0,0.0,105.93304443359375,95.02745819091797,-16239.4638671875,-114.7251968383789,72.23020935058594,113.77696990966797,45.12028121948242,-0.4789583683013916,0.08077002316713333
1731877049767.0,0.0,0.0,-20.0,0.0,0.0,0.0,0.0,0.0,0.0,0.0,0.0,0.0,0.0,0.0,0.0,0.0,0.0,0.0,0.0,0.0,0.0,105.93304443359375,95.02745819091797,-16239.4638671875,-114.7251968383789,72.23020935058594,113.77696990966797,45.12028121948242,-0.4789583683013916,0.08077002316713333
1731877049817.0,0.0,0.0,-20.0,0.0,0.0,0.0,0.0,0.0,0.0,0.0,0.0,0.0,0.0,0.0,0.0,0.0,0.0,0.0,0.0,0.0,0.0,-130.3513946533203,-158.52027893066406,-16430.17578125,72.02774810791016,44.91062927246094,76.14732360839844,45.245697021484375,0.23170259594917297,-0.13903506100177765
1731877049834.0,0.0,0.0,-20.0,0.0,0.0,0.0,0.0,0.0,0.0,0.0,0.0,0.0,0.0,0.0,0.0,0.0,0.0,0.0,0.0,0.0,0.0,-147.61776733398438,-105.708251953125,-16428.880859375,-150.26388549804688,113.01005554199219,-23.556804656982422,44.887046813964844,0.559464693069458,-0.7134989500045776
1731877049867.0,0.0,0.0,-20.0,0.0,0.0,0.0,0.0,0.0,0.0,0.0,0.0,0.0,0.0,0.0,0.0,0.0,0.0,0.0,0.0,0.0,0.0,9.911903381347656,-81.60038757324219,-16455.908203125,-66.55062866210938,105.26200103759766,11.536757469177246,44.579742431640625,-0.4369516968727112,0.3172855079174042
1731877049867.0,0.0,0.0,-20.0,0.0,0.0,0.0,0.0,0.0,0.0,0.0,0.0,0.0,0.0,0.0,0.0,0.0,0.0,0.0,0.0,0.0,0.0,9.911903381347656,-81.60038757324219,-16455.908203125,-66.55062866210938,105.26200103759766,11.536757469177246,44.579742431640625,-0.4369516968727112,0.3172855079174042
1731877049884.0,0.0,0.0,-20.0,0.0,0.0,0.0,0.0,0.0,0.0,0.0,0.0,0.0,0.0,0.0,0.0,0.0,0.0,0.0,0.0,0.0,0.0,15.59131908416748,-62.4025764465332,-16446.546875,-124.2025146484375,12.070756912231445,-39.13569259643555,45.211036682128906,0.2742599546909332,-0.1086745411157608
1731877049934.0,0.0,0.0,-20.0,0.0,0.0,0.0,0.0,0.0,0.0,0.0,0.0,0.0,0.0,0.0,0.0,0.0,0.0,0.0,0.0,0.0,0.0,-1.080469012260437,285.3722229003906,-16091.9501953125,82.03047943115234,0.7870422601699829,-58.24909973144531,44.97956085205078,0.5815054178237915,-0.36664214730262756
1731877049950.0,0.0,0.0,-20.0,0.0,0.0,0.0,0.0,0.0,0.0,0.0,0.0,0.0,0.0,0.0,0.0,0.0,0.0,0.0,0.0,0.0,0.0,148.4947967529297,54.6622314453125,-16426.15234375,55.78678894042969,-79.55949401855469,-17.344039916992188,44.399864196777344,0.05391101911664009,0.5931146740913391
1731877049967.0,0.0,0.0,-20.0,0.0,0.0,0.0,0.0,0.0,0.0,0.0,0.0,0.0,0.0,0.0,0.0,0.0,0.0,0.0,0.0,0.0,0.0,159.39060974121094,117.89091491699219,-16333.8017578125,-32.71538543701172,50.68256759643555,27.38726043701172,44.54021453857422,0.3747212886810303,-0.03765331953763962
1731877049984.0,0.0,0.0,-20.0,0.0,0.0,0.0,0.0,0.0,0.0,0.0,0.0,0.0,0.0,0.0,0.0,0.0,0.0,0.0,0.0,0.0,0.0,77.70568084716797,88.65381622314453,-16519.404296875,-38.5400390625,-9.657631874084473,2.2144224643707275,45.17497253417969,-0.0434422604739666,-0.09417419135570526
1731877050034.0,0.0,0.0,-20.0,0.0,0.0,0.0,0.0,0.0,0.0,0.0,0.0,0.0,0.0,0.0,0.0,0.0,0.0,0.0,0.0,0.0,0.0,14.178884506225586,-75.84297180175781,-16483.095703125,-22.624557495117188,26.356260299682617,171.71994018554688,45.0147705078125,-0.2929541766643524,-0.47200748324394226
1731877050050.0,0.0,0.0,-20.0,0.0,0.0,0.0,0.0,0.0,0.0,0.0,0.0,0.0,0.0,0.0,0.0,0.0,0.0,0.0,0.0,0.0,0.0,-25.73839569091797,90.42068481445312,-16444.23046875,-12.562410354614258,32.974266052246094,11.403916358947754,45.34869384765625,-0.23209449648857117,-0.3840022385120392
1731877050067.0,0.0,0.0,-20.0,0.0,0.0,0.0,0.0,0.0,0.0,0.0,0.0,0.0,0.0,0.0,0.0,0.0,0.0,0.0,0.0,0.0,0.0,-227.24240112304688,105.75284576416016,-16174.10546875,-13.72138786315918,0.19086208939552307,33.421058654785156,44.7980842590332,-0.15081694722175598,-0.22099417448043823
1731877050084.0,0.0,0.0,-20.0,0.0,0.0,0.0,0.0,0.0,0.0,0.0,0.0,0.0,0.0,0.0,0.0,0.0,0.0,0.0,0.0,0.0,0.0,112.78758239746094,-73.36356353759766,-16352.8837890625,92.54821014404297,-89.03189849853516,-40.43727111816406,45.35034942626953,-0.4334588348865509,-0.027510300278663635
1731877050117.0,0.0,0.0,-20.0,0.0,0.0,0.0,0.0,0.0,0.0,0.0,0.0,0.0,0.0,0.0,0.0,0.0,0.0,0.0,0.0,0.0,0.0,69.30426788330078,-86.49131774902344,-16294.8779296875,25.988059997558594,27.1961612701416,24.184101104736328,45.112857818603516,-0.18471910059452057,-0.09179619699716568
1731877050151.0,0.0,0.0,-20.0,0.0,0.0,0.0,0.0,0.0,0.0,0.0,0.0,0.0,0.0,0.0,0.0,0.0,0.0,0.0,0.0,0.0,0.0,202.89064025878906,-142.7132110595703,-16440.638671875,-32.086326599121094,0.9977323412895203,38.777366638183594,45.147865295410156,0.25940272212028503,0.40484070777893066
1731877050168.0,0.0,0.0,-20.0,0.0,0.0,0.0,0.0,0.0,0.0,0.0,0.0,0.0,0.0,0.0,0.0,0.0,0.0,0.0,0.0,0.0,-0.023402493447065353,122.96189880371094,-87.84300231933594,-16471.697265625,48.801395416259766,-9.025167465209961,-143.40325927734375,44.872947692871094,0.08800618350505829,0.5844353437423706
1731877050185.0,0.0,0.0,-20.0,0.0,0.0,0.0,0.0,0.0,0.0,0.0,0.0,0.0,0.0,0.0,0.0,0.0,0.0,-0.026824951171875,0.0,0.0,-0.006371415685862303,-157.57618713378906,-68.51458740234375,-16284.0107421875,-28.24338722229004,-85.00794982910156,35.454193115234375,44.82532501220703,0.2607126235961914,0.21673619747161865
1731877050201.0,0.0,0.0,-20.0,0.0,0.0,0.0,0.0,0.0,0.0,0.0,0.0,0.0,0.0,0.0,0.0,0.0,0.0,-0.03411865234375,0.0,0.0,0.019147349521517754,71.9985122680664,63.03389358520508,-16201.3173828125,-16.521484375,-79.72360229492188,206.11021423339844,44.65007019042969,0.14806878566741943,-0.24287280440330505
1731877050235.0,0.0,0.0,-20.0,0.0,0.0,0.0,0.0,0.0,0.0,0.0,0.0,0.0,0.0,0.0,0.0,0.0,0.0,-0.012176513671875,0.0,0.0,0.07850557565689087,66.8968276977539,259.12725830078125,-16339.419921875,20.565752029418945,53.78564453125,525.720947265625,45.171260833740234,-0.014271517284214497,0.03778456896543503
1731877050268.0,0.0,0.0,-20.0,0.0,0.0,0.0,0.0,0.0,0.0,0.0,0.0,0.0,0.0,0.0,0.0,0.0,0.0,0.1870228350162506,0.0,0.0,0.11207154393196106,-55.48216247558594,66.13809204101562,-16259.896484375,22.84770965576172,-37.45085144042969,845.7142333984375,44.45714569091797,0.21906550228595734,0.38386449217796326
1731877050285.0,0.0,0.0,-20.0,0.0,0.0,0.0,0.0,0.0,0.0,0.0,0.0,0.0,0.0,0.0,0.0,0.0,0.0,0.3154474198818207,0.0,0.0,0.12027373164892197,180.6380615234375,26.27593231201172,-16527.912109375,-9.464644432067871,-171.37673950195312,819.7363891601562,44.49127197265625,0.2344108521938324,0.350586473941803
1731877050285.0,0.0,0.0,-20.0,0.0,0.0,0.0,0.0,0.0,0.0,0.0,0.0,0.0,0.0,0.0,0.0,0.0,0.0,0.3154474198818207,0.0,0.0,0.12027373164892197,180.6380615234375,26.27593231201172,-16527.912109375,-9.464644432067871,-171.37673950195312,819.7363891601562,44.49127197265625,0.2344108521938324,0.350586473941803
1731877050334.0,0.0,0.0,-20.0,0.0,0.0,0.0,0.0,0.0,0.0,0.0,0.0,0.0,0.0,0.0,0.0,0.0,0.0,0.6100608706474304,0.0,0.0,0.15281598269939423,2.8165531158447266,66.20514678955078,-16465.33203125,34.453372955322266,-95.06245422363281,904.18798828125,45.30646514892578,-0.524246335029602,-0.08943775296211243
1731877050351.0,0.0,0.0,-20.0,0.0,0.0,0.0,0.0,0.0,0.0,0.0,0.0,0.0,0.0,0.0,0.0,0.0,0.0,0.7851750254631042,0.0,0.0,0.1606551855802536,47.35346984863281,119.99291229248047,-16571.6796875,150.9364013671875,-82.06511688232422,1162.01611328125,45.349143981933594,-0.5972923636436462,-0.41218775510787964
1731877050384.0,0.0,0.0,-20.0,0.0,0.0,0.0,0.0,0.0,0.0,0.0,0.0,0.0,0.0,0.0,0.0,0.0,0.0,1.1622530221939087,0.0,0.0,0.17607751488685608,-140.26551818847656,29.290578842163086,-16490.673828125,37.21249771118164,-41.146400451660156,1592.204833984375,45.07771682739258,-0.9676526188850403,0.05976102501153946
1731877050384.0,0.0,0.0,-20.0,0.0,0.0,0.0,0.0,0.0,0.0,0.0,0.0,0.0,0.0,0.0,0.0,0.0,0.0,1.1622530221939087,0.0,0.0,0.17607751488685608,-140.26551818847656,29.290578842163086,-16490.673828125,37.21249771118164,-41.146400451660156,1592.204833984375,45.07771682739258,-0.9676526188850403,0.05976102501153946
1731877050401.0,0.0,0.0,-20.0,0.0,0.0,0.0,0.0,0.0,0.0,0.0,0.0,0.0,0.0,0.0,0.0,0.0,0.0,1.3640230894088745,0.0,0.0,0.17534349858760834,-107.59517669677734,-86.44703674316406,-16439.01171875,131.97537231445312,-69.96575927734375,1231.8126220703125,45.35787582397461,-1.3226237297058105,-0.41687121987342834
1731877050452.0,0.0,0.0,-20.0,0.0,0.0,0.0,0.0,0.0,0.0,0.0,0.0,0.0,0.0,0.0,0.0,0.0,0.0,1.7734005451202393,0.0,0.0,0.19725379347801208,-28.912803649902344,-85.16261291503906,-16338.193359375,-96.27102661132812,3.1684131622314453,1282.689453125,44.678993225097656,-1.5678937435150146,0.18152500689029694
1731877050468.0,0.0,0.0,-20.0,0.0,0.0,0.0,0.0,0.0,0.0,0.0,0.0,0.0,0.0,0.0,0.0,0.0,0.0,1.9994369745254517,0.0,0.0,0.2043025642633438,-21.333595275878906,-15.044083595275879,-16264.8564453125,63.218414306640625,-73.561279296875,1441.175537109375,45.01723861694336,-1.1770155429840088,-0.2385403960943222
1731877050484.0,0.0,0.0,-20.0,0.0,0.0,0.0,0.0,0.0,0.0,0.0,0.0,0.0,0.0,0.0,0.0,0.0,0.0,2.2335498332977295,0.0,0.0,0.21125173568725586,-85.43805694580078,65.329345703125,-16608.474609375,-59.90385818481445,142.38221740722656,1742.284912109375,45.29682922363281,-1.875861406326294,-0.174620121717453
1731877050502.0,0.0,0.0,-20.0,0.0,0.0,0.0,0.0,0.0,0.0,0.0,0.0,0.0,0.0,0.0,0.0,0.0,0.0,2.4756269454956055,0.0,0.0,0.20995298027992249,-16.168458938598633,15.593632698059082,-16304.62890625,37.22418975830078,38.796897888183594,1472.0849609375,45.171653747558594,-1.7646129131317139,0.6283401250839233
1731877050552.0,0.0,0.0,-20.0,0.0,0.0,0.0,0.0,0.0,0.0,0.0,0.0,0.0,0.0,0.0,0.0,0.0,0.0,2.9718101024627686,0.0,0.0,0.2293749749660492,139.9611053466797,-52.620094299316406,-16278.5927734375,51.114013671875,79.79898834228516,1499.396484375,45.152809143066406,-2.0552568435668945,-0.31523436307907104
1731877050568.0,0.0,0.0,-20.0,0.0,0.0,0.0,0.0,0.0,0.0,0.0,0.0,0.0,0.0,0.0,0.0,0.0,0.0,3.234654188156128,0.0,0.0,0.22776809334754944,-163.5530242919922,-16.340181350708008,-16304.455078125,-19.590225219726562,108.07084655761719,1571.73291015625,44.33101272583008,-2.2000346183776855,0.1536896526813507
1731877050585.0,0.0,0.0,-20.0,0.0,0.0,0.0,0.0,0.0,0.0,0.0,0.0,0.0,0.0,0.0,0.0,0.0,0.0,3.495657444000244,0.0,0.0,0.23379088938236237,-180.56735229492188,99.14164733886719,-16642.22265625,-2.4655723571777344,112.37835693359375,1740.559814453125,44.9005012512207,-2.5369718074798584,0.5231487154960632
1731877050602.0,0.0,0.0,-20.0,0.0,0.0,0.0,0.0,0.0,0.0,0.0,0.0,0.0,0.0,0.0,0.0,0.0,0.0,3.7635624408721924,0.0,0.0,0.23190823197364807,-67.560791015625,-162.6809539794922,-16420.1484375,109.23670196533203,39.48246383666992,1633.239990234375,44.3332405090332,-2.683337688446045,-0.02003934234380722
1731877050635.0,0.0,0.0,-20.0,0.0,0.0,0.0,0.0,0.0,0.0,0.0,0.0,0.0,0.0,0.0,0.0,0.0,0.0,4.0293097496032715,0.0,0.0,0.2431502491235733,-126.0557632446289,94.47701263427734,-16272.2509765625,-169.8891143798828,13.032584190368652,1852.5830078125,44.80556869506836,-2.8786933422088623,0.22262820601463318
1731877050668.0,0.0,0.0,-20.0,0.0,0.0,0.0,0.0,0.0,0.0,0.0,0.0,0.0,0.0,0.0,0.0,0.0,0.0,4.584139347076416,0.0,0.0,0.2387777417898178,-39.117122650146484,104.09954833984375,-16326.2431640625,-54.87540054321289,26.190210342407227,1633.270263671875,45.110328674316406,-3.1016411781311035,0.13434307277202606
1731877050685.0,0.0,0.0,-20.0,0.0,0.0,0.0,0.0,0.0,0.0,0.0,0.0,0.0,0.0,0.0,0.0,0.0,0.0,4.857757568359375,0.0,0.0,0.23649246990680695,-20.01078224182129,78.93489074707031,-16320.7099609375,41.93990707397461,96.85002899169922,1822.9482421875,44.806983947753906,-3.222459316253662,0.09689901769161224
1731877050701.0,0.0,0.0,-20.0,0.0,0.0,0.0,0.0,0.0,0.0,0.0,0.0,0.0,0.0,0.0,0.0,0.0,0.0,5.128758430480957,0.0,0.0,0.23410697281360626,26.804243087768555,203.64791870117188,-16269.1162109375,42.94255447387695,65.60470581054688,1699.866455078125,44.35630798339844,-4.178380489349365,-0.3079795837402344
1731877050735.0,0.0,0.0,-20.0,0.0,0.0,0.0,0.0,0.0,0.0,0.0,0.0,0.0,0.0,0.0,0.0,0.0,0.0,5.397024631500244,0.0,0.0,0.22921127080917358,73.80598449707031,33.5031852722168,-16168.595703125,-83.0265121459961,-48.634220123291016,1628.1943359375,44.40689468383789,-4.08607292175293,0.34454044699668884
1731877050768.0,0.0,0.0,-20.0,0.0,0.0,0.0,0.0,0.0,0.0,0.0,0.0,0.0,0.0,0.0,0.0,0.0,0.0,5.9193806648254395,0.0,0.0,0.22402411699295044,-4.809851169586182,-80.70587158203125,-16491.873046875,-44.83972930908203,-44.0146369934082,1693.620849609375,44.902198791503906,-4.419240474700928,0.3348991274833679
1731877050785.0,0.0,0.0,-20.0,0.0,0.0,0.0,0.0,0.0,0.0,0.0,0.0,0.0,0.0,0.0,0.0,0.0,0.0,6.176093578338623,0.0,0.0,0.2213163524866104,-30.469785690307617,49.62409973144531,-16377.279296875,-14.64846420288086,103.66485595703125,1871.4627685546875,45.4984016418457,-4.632472038269043,-0.29296714067459106
1731877050802.0,0.0,0.0,-20.0,0.0,0.0,0.0,0.0,0.0,0.0,0.0,0.0,0.0,0.0,0.0,0.0,0.0,0.0,6.429702281951904,0.0,0.0,0.21856607496738434,-172.6804656982422,-55.866661071777344,-16367.1142578125,-43.64159393310547,29.056842803955078,1806.580810546875,43.999595642089844,-5.243748188018799,-0.6693035960197449
1731877050835.0,0.0,0.0,-20.0,0.0,0.0,0.0,0.0,0.0,0.0,0.0,0.0,0.0,0.0,0.0,0.0,0.0,0.0,6.680160999298096,0.0,0.0,0.2129252851009369,-125.19219970703125,-43.37416458129883,-16297.388671875,97.35591125488281,-67.25209045410156,1635.5301513671875,44.74085998535156,-5.2983927726745605,0.023982319980859756
1731877050852.0,0.0,0.0,-20.0,0.0,0.0,0.0,0.0,0.0,0.0,0.0,0.0,0.0,0.0,0.0,0.0,0.0,0.0,6.924155235290527,0.0,0.0,0.20993003249168396,22.704334259033203,-133.0403594970703,-16438.9296875,29.61443519592285,-27.46624183654785,1633.94873046875,44.435272216796875,-5.477182388305664,-0.09980407357215881
1731877050885.0,0.0,0.0,-20.0,0.0,0.0,0.0,0.0,0.0,0.0,0.0,0.0,0.0,0.0,0.0,0.0,0.0,0.0,7.401952743530273,0.0,0.0,0.20398113131523132,55.61775207519531,108.4142837524414,-16303.8271484375,-17.25926399230957,70.3614730834961,1513.568603515625,44.25984191894531,-5.8412885665893555,-0.035561081022024155
1731877050885.0,0.0,0.0,-20.0,0.0,0.0,0.0,0.0,0.0,0.0,0.0,0.0,0.0,0.0,0.0,0.0,0.0,0.0,7.401952743530273,0.0,0.0,0.20398113131523132,55.61775207519531,108.4142837524414,-16303.8271484375,-17.25926399230957,70.3614730834961,1513.568603515625,44.25984191894531,-5.8412885665893555,-0.035561081022024155
1731877050935.0,0.0,0.0,-20.0,0.0,0.0,0.0,0.0,0.0,0.0,0.0,0.0,0.0,0.0,0.0,0.0,0.0,0.0,7.865939617156982,0.0,0.0,0.19447879493236542,-17.727920532226562,54.38322067260742,-16442.888671875,-10.094398498535156,39.859127044677734,1365.746826171875,44.940391540527344,-6.622769832611084,0.6397503018379211
1731877050952.0,0.0,0.0,-20.0,0.0,0.0,0.0,0.0,0.0,0.0,0.0,0.0,0.0,0.0,0.0,0.0,0.0,0.0,8.088796615600586,0.0,0.0,0.19116073846817017,-130.7572021484375,-85.20709991455078,-16443.4375,-71.70323181152344,15.793024063110352,1834.9498291015625,44.69514083862305,-5.926235675811768,0.3035472631454468
1731877050968.0,0.0,0.0,-20.0,0.0,0.0,0.0,0.0,0.0,0.0,0.0,0.0,0.0,0.0,0.0,0.0,0.0,0.0,8.307849884033203,0.0,0.0,0.18793433904647827,1.9913896322250366,-30.160438537597656,-16467.787109375,-7.7031402587890625,-65.48783111572266,1332.2406005859375,44.38080978393555,-6.227087020874023,0.2937079071998596
1731877050985.0,0.0,0.0,-20.0,0.0,0.0,0.0,0.0,0.0,0.0,0.0,0.0,0.0,0.0,0.0,0.0,0.0,0.0,8.523207664489746,0.0,0.0,0.18448466062545776,-54.04197692871094,105.37833404541016,-16460.3046875,128.19815063476562,102.1790771484375,1334.71630859375,44.6615104675293,-6.684185028076172,0.25785019993782043
1731877051002.0,0.0,0.0,-20.0,0.0,0.0,0.0,0.0,0.0,0.0,0.0,0.0,0.0,0.0,0.0,0.0,0.0,0.0,8.734610557556152,0.0,0.0,0.18110713362693787,-70.66959381103516,166.6821746826172,-16351.013671875,37.15747833251953,64.6662368774414,1142.4254150390625,44.23419189453125,-6.794694900512695,0.36371687054634094
1731877051052.0,0.0,0.0,-20.0,0.0,0.0,0.0,0.0,0.0,0.0,0.0,0.0,0.0,0.0,0.0,0.0,0.0,0.0,9.141621589660645,0.0,0.0,0.1705518513917923,277.5580749511719,66.0652847290039,-16397.361328125,90.36223602294922,29.33899688720703,1362.18505859375,44.1208610534668,-7.6185688972473145,-0.29470542073249817
1731877051068.0,0.0,0.0,-20.0,0.0,0.0,0.0,0.0,0.0,0.0,0.0,0.0,0.0,0.0,0.0,0.0,0.0,0.0,9.33705997467041,0.0,0.0,0.1669815331697464,54.81442642211914,-61.87358856201172,-16343.1396484375,-40.79195022583008,-47.42735290527344,1258.699951171875,44.931880950927734,-7.42374324798584,-0.6024494171142578
1731877051085.0,0.0,0.0,-20.0,0.0,0.0,0.0,0.0,0.0,0.0,0.0,0.0,0.0,0.0,0.0,0.0,0.0,0.0,9.528407096862793,0.0,0.0,0.16323110461235046,8.533010482788086,-2.452916383743286,-16381.7490234375,-126.23448944091797,8.924368858337402,1023.7861328125,44.179420471191406,-7.966588973999023,-0.40141478180885315
1731877051102.0,0.0,0.0,-20.0,0.0,0.0,0.0,0.0,0.0,0.0,0.0,0.0,0.0,0.0,0.0,0.0,0.0,0.0,9.715456008911133,0.0,0.0,0.15967856347560883,-119.3053207397461,116.03268432617188,-16189.142578125,9.305672645568848,67.16893005371094,1357.9000244140625,44.26459884643555,-7.7228684425354,0.1789076179265976
1731877051135.0,0.0,0.0,-20.0,0.0,0.0,0.0,0.0,0.0,0.0,0.0,0.0,0.0,0.0,0.0,0.0,0.0,0.0,9.898433685302734,0.0,0.0,0.15214504301548004,-200.87704467773438,79.53587341308594,-16394.13671875,87.51493835449219,91.47659301757812,1047.1173095703125,44.77235794067383,-7.6935906410217285,0.117776058614254
1731877051168.0,0.0,0.0,-20.0,0.0,0.0,0.0,0.0,0.0,0.0,0.0,0.0,0.0,0.0,0.0,0.0,0.0,0.0,10.242718696594238,0.0,0.0,0.14441406726837158,-12.145143508911133,-93.5010757446289,-16430.2421875,20.870193481445312,-45.60303497314453,1036.210693359375,44.19522476196289,-8.23730754852295,-0.07545328885316849
1731877051185.0,0.0,0.0,-20.0,0.0,0.0,0.0,0.0,0.0,0.0,0.0,0.0,0.0,0.0,0.0,0.0,0.0,0.0,10.408205032348633,0.0,0.0,0.1404874473810196,9.643681526184082,32.19936752319336,-16265.2490234375,-20.72740936279297,41.33283615112305,908.3137817382812,44.69902420043945,-8.205928802490234,0.19380810856819153
1731877051201.0,0.0,0.0,-20.0,0.0,0.0,0.0,0.0,0.0,0.0,0.0,0.0,0.0,0.0,0.0,0.0,0.0,0.0,10.569191932678223,0.0,0.0,0.1365797221660614,14.761700630187988,141.66358947753906,-16422.11328125,-35.51443099975586,-29.346790313720703,1116.2408447265625,44.69307327270508,-8.509742736816406,0.5874775648117065
1731877051235.0,0.0,0.0,-20.0,0.0,0.0,0.0,0.0,0.0,0.0,0.0,0.0,0.0,0.0,0.0,0.0,0.0,0.0,10.725701332092285,0.0,0.0,0.12856519222259521,14.914131164550781,13.830573081970215,-16410.072265625,-11.737679481506348,-3.0066139698028564,896.1805419921875,44.522579193115234,-8.728504180908203,-0.30830466747283936
1731877051251.0,0.0,0.0,-20.0,0.0,0.0,0.0,0.0,0.0,0.0,0.0,0.0,0.0,0.0,0.0,0.0,0.0,0.0,10.873025894165039,0.0,0.0,0.12454863637685776,60.22524642944336,222.107177734375,-16324.3798828125,-82.39408874511719,2.1094858646392822,897.0457153320312,44.01146697998047,-8.261402130126953,-0.5898690819740295
1731877051284.0,0.0,0.0,-20.0,0.0,0.0,0.0,0.0,0.0,0.0,0.0,0.0,0.0,0.0,0.0,0.0,0.0,0.0,11.153759956359863,0.0,0.0,0.11632407456636429,22.656755447387695,12.39522933959961,-16358.1279296875,-46.354679107666016,68.01153564453125,964.848876953125,43.787139892578125,-8.289779663085938,0.31026941537857056
1731877051284.0,0.0,0.0,-20.0,0.0,0.0,0.0,0.0,0.0,0.0,0.0,0.0,0.0,0.0,0.0,0.0,0.0,0.0,11.153759956359863,0.0,0.0,0.11632407456636429,22.656755447387695,12.39522933959961,-16358.1279296875,-46.354679107666016,68.01153564453125,964.848876953125,43.787139892578125,-8.289779663085938,0.31026941537857056
1731877051301.0,0.0,0.0,-20.0,0.0,0.0,0.0,0.0,0.0,0.0,0.0,0.0,0.0,0.0,0.0,0.0,0.0,0.0,11.287057876586914,0.0,0.0,0.11217807978391647,-42.366844177246094,-59.12010955810547,-16362.9345703125,-26.48343276977539,27.251256942749023,850.6966552734375,44.60646057128906,-8.364019393920898,0.05351858213543892
1731877051352.0,0.0,0.0,-20.0,0.0,0.0,0.0,0.0,0.0,0.0,0.0,0.0,0.0,0.0,0.0,0.0,0.0,0.0,11.534401893615723,0.0,0.0,0.09934045374393463,54.339420318603516,-38.456260681152344,-16426.197265625,35.332210540771484,-76.11553955078125,772.9210815429688,44.2586555480957,-9.342293739318848,-0.12163159251213074
1731877051368.0,0.0,0.0,-20.0,0.0,0.0,0.0,0.0,0.0,0.0,0.0,0.0,0.0,0.0,0.0,0.0,0.0,0.0,11.648238182067871,0.0,0.0,0.09504490345716476,7.719269275665283,103.15875244140625,-16306.6962890625,-56.26679992675781,-81.42784118652344,781.04833984375,44.00323486328125,-9.256983757019043,-0.1450069695711136
1731877051385.0,0.0,0.0,-20.0,0.0,0.0,0.0,0.0,0.0,0.0,0.0,0.0,0.0,0.0,0.0,0.0,0.0,0.0,11.757153511047363,0.0,0.0,0.09075440466403961,104.83514404296875,-140.07789611816406,-16510.916015625,-57.221065521240234,129.02854919433594,699.9010620117188,43.40669631958008,-9.081955909729004,-0.3178015649318695
1731877051402.0,0.0,0.0,-20.0,0.0,0.0,0.0,0.0,0.0,0.0,0.0,0.0,0.0,0.0,0.0,0.0,0.0,0.0,11.861148834228516,0.0,0.0,0.08640707284212112,-101.21186828613281,-11.41476821899414,-16527.751953125,-19.461135864257812,15.998175621032715,737.3792114257812,44.27489471435547,-9.14034366607666,-0.2933690845966339
1731877051435.0,0.0,0.0,-20.0,0.0,0.0,0.0,0.0,0.0,0.0,0.0,0.0,0.0,0.0,0.0,0.0,0.0,0.0,11.960165023803711,0.0,0.0,0.0776732861995697,12.69023323059082,28.912561416625977,-16434.29296875,83.579833984375,61.475868225097656,667.0901489257812,44.036930084228516,-8.668972969055176,0.09963665157556534
1731877051469.0,0.0,0.0,-20.0,0.0,0.0,0.0,0.0,0.0,0.0,0.0,0.0,0.0,0.0,0.0,0.0,0.0,0.0,12.133156776428223,0.0,0.0,0.06888571381568909,-150.4434356689453,-88.73863983154297,-16291.25390625,-70.89610290527344,-80.45616149902344,546.2625732421875,44.17692184448242,-9.246696472167969,0.2673642933368683
1731877051485.0,0.0,0.0,-20.0,0.0,0.0,0.0,0.0,0.0,0.0,0.0,0.0,0.0,0.0,0.0,0.0,0.0,0.0,12.2120943069458,0.0,0.0,0.0643976554274559,-144.38392639160156,172.62185668945312,-16498.01953125,-103.73638916015625,-114.51741027832031,365.81854248046875,44.26542663574219,-9.73927116394043,-0.26659053564071655
1731877051502.0,0.0,0.0,-20.0,0.0,0.0,0.0,0.0,0.0,0.0,0.0,0.0,0.0,0.0,0.0,0.0,0.0,0.0,12.285887718200684,0.0,0.0,0.05992404744029045,-167.3585662841797,70.0850830078125,-16391.822265625,25.50189781188965,61.37047576904297,441.3583679199219,43.775028228759766,-10.363396644592285,-0.14030127227306366
1731877051535.0,0.0,0.0,-20.0,0.0,0.0,0.0,0.0,0.0,0.0,0.0,0.0,0.0,0.0,0.0,0.0,0.0,0.0,12.354555130004883,0.0,0.0,0.05102663114666939,-22.876693725585938,-7.977406024932861,-16403.78125,-136.56790161132812,16.69577980041504,474.0882568359375,43.87408447265625,-9.89684772491455,-0.37747976183891296
1731877051552.0,0.0,0.0,-20.0,0.0,0.0,0.0,0.0,0.0,0.0,0.0,0.0,0.0,0.0,0.0,0.0,0.0,0.0,12.413026809692383,0.0,0.0,0.04647377133369446,53.220455169677734,-35.71308135986328,-16288.09765625,-27.7026424407959,2.61502742767334,288.94970703125,43.61557388305664,-9.534684181213379,0.40448740124702454
1731877051585.0,0.0,0.0,-20.0,0.0,0.0,0.0,0.0,0.0,0.0,0.0,0.0,0.0,0.0,0.0,0.0,0.0,0.0,12.514303207397461,0.0,0.0,0.03739621862769127,-76.18182373046875,-47.356597900390625,-16388.6328125,22.54178810119629,35.22328186035156,415.65966796875,43.81193161010742,-10.051648139953613,0.048460330814123154
1731877051585.0,0.0,0.0,-20.0,0.0,0.0,0.0,0.0,0.0,0.0,0.0,0.0,0.0,0.0,0.0,0.0,0.0,0.0,12.514303207397461,0.0,0.0,0.03739621862769127,-76.18182373046875,-47.356597900390625,-16388.6328125,22.54178810119629,35.22328186035156,415.65966796875,43.81193161010742,-10.051648139953613,0.048460330814123154
1731877051635.0,0.0,0.0,-20.0,0.0,0.0,0.0,0.0,0.0,0.0,0.0,0.0,0.0,0.0,0.0,0.0,0.0,0.0,12.594751358032227,0.0,0.0,0.023738030344247818,-91.70317077636719,10.986377716064453,-16485.13671875,14.015195846557617,42.809471130371094,157.07223510742188,44.09513854980469,-9.894454002380371,0.055578216910362244
1731877051652.0,0.0,0.0,-20.0,0.0,0.0,0.0,0.0,0.0,0.0,0.0,0.0,0.0,0.0,0.0,0.0,0.0,0.0,12.621953964233398,0.0,0.0,0.019092362374067307,-18.675920486450195,-46.506080627441406,-16389.599609375,14.438817977905273,-51.1118278503418,145.96437072753906,44.03813171386719,-9.370321273803711,-0.024665500968694687
1731877051686.0,0.0,0.0,-20.0,0.0,0.0,0.0,0.0,0.0,0.0,0.0,0.0,0.0,0.0,0.0,0.0,0.0,0.0,12.660494804382324,0.0,0.0,0.009986892342567444,70.882080078125,37.73805618286133,-16544.064453125,24.051504135131836,52.69842529296875,208.10598754882812,44.133575439453125,-10.08902645111084,-0.28957849740982056
1731877051686.0,0.0,0.0,-20.0,0.0,0.0,0.0,0.0,0.0,0.0,0.0,0.0,0.0,0.0,0.0,0.0,0.0,0.0,12.660494804382324,0.0,0.0,0.009986892342567444,70.882080078125,37.73805618286133,-16544.064453125,24.051504135131836,52.69842529296875,208.10598754882812,44.133575439453125,-10.08902645111084,-0.28957849740982056
1731877051736.0,0.0,0.0,-20.0,0.0,0.0,0.0,0.0,0.0,0.0,0.0,0.0,0.0,0.0,0.0,0.0,0.0,0.0,12.67816162109375,0.0,0.0,-0.0037223349791020155,-112.38207244873047,-90.97269439697266,-16473.6953125,53.402259826660156,83.72712707519531,-44.97420120239258,43.683990478515625,-9.965204238891602,0.5940400958061218
1731877051752.0,0.0,0.0,-20.0,0.0,0.0,0.0,0.0,0.0,0.0,0.0,0.0,0.0,0.0,0.0,0.0,0.0,0.0,12.673895835876465,0.0,0.0,-0.00834755226969719,25.0073299407959,-28.70692253112793,-16411.552734375,65.0956802368164,-127.28831481933594,-70.85504150390625,43.91521453857422,-9.98082447052002,-0.47529110312461853
1731877051786.0,0.0,0.0,-20.0,0.0,0.0,0.0,0.0,0.0,0.0,0.0,0.0,0.0,0.0,0.0,0.0,0.0,0.0,12.649543762207031,0.0,0.0,-0.01745574176311493,107.21671295166016,73.30146026611328,-16328.708984375,44.817138671875,-106.73223876953125,-85.69560241699219,44.07476043701172,-10.151132583618164,0.18403835594654083
1731877051786.0,0.0,0.0,-20.0,0.0,0.0,0.0,0.0,0.0,0.0,0.0,0.0,0.0,0.0,0.0,0.0,0.0,0.0,12.649543762207031,0.0,0.0,-0.01745574176311493,107.21671295166016,73.30146026611328,-16328.708984375,44.817138671875,-106.73223876953125,-85.69560241699219,44.07476043701172,-10.151132583618164,0.18403835594654083
1731877051836.0,0.0,0.0,-20.0,0.0,0.0,0.0,0.0,0.0,0.0,0.0,0.0,0.0,0.0,0.0,0.0,0.0,0.0,12.604364395141602,0.0,0.0,-0.03121205046772957,77.720458984375,75.7339859008789,-16441.224609375,60.56748580932617,-37.98735809326172,-228.85638427734375,44.13253402709961,-10.284592628479004,-0.04458998516201973
1731877051852.0,0.0,0.0,-20.0,0.0,0.0,0.0,0.0,0.0,0.0,0.0,0.0,0.0,0.0,0.0,0.0,0.0,0.0,12.568598747253418,0.0,0.0,-0.03567086160182953,-44.67415237426758,187.37351989746094,-16445.380859375,-28.879884719848633,80.37506866455078,-294.40252685546875,44.12397384643555,-10.138165473937988,0.07590552419424057
1731877051869.0,0.0,0.0,-20.0,0.0,0.0,0.0,0.0,0.0,0.0,0.0,0.0,0.0,0.0,0.0,0.0,0.0,0.0,12.527721405029297,0.0,0.0,-0.040219616144895554,-31.90363311767578,129.4515838623047,-16319.560546875,-88.41973114013672,-50.19422912597656,-153.3019561767578,43.531578063964844,-10.135522842407227,0.3739597201347351
1731877051886.0,0.0,0.0,-20.0,0.0,0.0,0.0,0.0,0.0,0.0,0.0,0.0,0.0,0.0,0.0,0.0,0.0,0.0,12.481635093688965,0.0,0.0,-0.04475712776184082,12.156332969665527,19.477783203125,-16332.544921875,0.3095800280570984,-44.145931243896484,-335.6913146972656,43.52197265625,-9.07678508758545,0.07656625658273697
1731877051902.0,0.0,0.0,-20.0,0.0,0.0,0.0,0.0,0.0,0.0,0.0,0.0,0.0,0.0,0.0,0.0,0.0,0.0,12.43034553527832,0.0,0.0,-0.049282122403383255,47.10002899169922,88.44841003417969,-16372.3447265625,62.526588439941406,-59.38034439086914,-432.731201171875,44.19777297973633,-9.581231117248535,-0.1521753966808319
1731877051952.0,0.0,0.0,-20.0,0.0,0.0,0.0,0.0,0.0,0.0,0.0,0.0,0.0,0.0,0.0,0.0,0.0,0.0,12.30715274810791,0.0,0.0,-0.06273671984672546,-7.373551368713379,16.062931060791016,-16344.595703125,-32.63147735595703,-55.48351287841797,-454.0906066894531,44.381813049316406,-9.331822395324707,0.03196385130286217
1731877051969.0,0.0,0.0,-20.0,0.0,0.0,0.0,0.0,0.0,0.0,0.0,0.0,0.0,0.0,0.0,0.0,0.0,0.0,12.235260009765625,0.0,0.0,-0.06719916313886642,4.0220184326171875,79.65472412109375,-16324.515625,-29.963956832885742,-4.140085220336914,-488.0145568847656,44.042152404785156,-9.665383338928223,-0.03782382979989052
1731877051986.0,0.0,0.0,-20.0,0.0,0.0,0.0,0.0,0.0,0.0,0.0,0.0,0.0,0.0,0.0,0.0,0.0,0.0,12.158255577087402,0.0,0.0,-0.07167516648769379,-65.7669448852539,-27.991785049438477,-16387.580078125,47.60356521606445,11.454522132873535,-473.61895751953125,44.031707763671875,-9.80655288696289,0.3181217610836029
1731877052002.0,0.0,0.0,-20.0,0.0,0.0,0.0,0.0,0.0,0.0,0.0,0.0,0.0,0.0,0.0,0.0,0.0,0.0,12.07612419128418,0.0,0.0,-0.07603420317173004,-42.33633804321289,173.2526397705078,-16439.12890625,16.527812957763672,-69.30877685546875,-443.0288391113281,43.70387649536133,-9.829620361328125,-0.07354826480150223
1731877052036.0,0.0,0.0,-20.0,0.0,0.0,0.0,0.0,0.0,0.0,0.0,0.0,0.0,0.0,0.0,0.0,0.0,0.0,11.988993644714355,0.0,0.0,-0.08478480577468872,34.70230484008789,-97.60405731201172,-16319.4853515625,9.548920631408691,-2.1132700443267822,-703.7734985351562,44.0174560546875,-9.408160209655762,0.2978476285934448
1731877052069.0,0.0,0.0,-20.0,0.0,0.0,0.0,0.0,0.0,0.0,0.0,0.0,0.0,0.0,0.0,0.0,0.0,0.0,11.789763450622559,0.0,0.0,-0.0933782160282135,-75.8095474243164,39.67169189453125,-16482.25390625,-52.36314392089844,42.50150680541992,-708.615478515625,43.995147705078125,-8.903286933898926,-0.2732212543487549
1731877052085.0,0.0,0.0,-20.0,0.0,0.0,0.0,0.0,0.0,0.0,0.0,0.0,0.0,0.0,0.0,0.0,0.0,0.0,11.682759284973145,0.0,0.0,-0.0976528525352478,17.393383026123047,26.657121658325195,-16343.7880859375,-34.98387908935547,-22.494470596313477,-659.087890625,44.33100891113281,-9.013589859008789,0.356357604265213
1731877052085.0,0.0,0.0,-20.0,0.0,0.0,0.0,0.0,0.0,0.0,0.0,0.0,0.0,0.0,0.0,0.0,0.0,0.0,11.682759284973145,0.0,0.0,-0.0976528525352478,17.393383026123047,26.657121658325195,-16343.7880859375,-34.98387908935547,-22.494470596313477,-659.087890625,44.33100891113281,-9.013589859008789,0.356357604265213
1731877052136.0,0.0,0.0,-20.0,0.0,0.0,0.0,0.0,0.0,0.0,0.0,0.0,0.0,0.0,0.0,0.0,0.0,0.0,11.454017639160156,0.0,0.0,-0.11049478501081467,33.070220947265625,-88.42207336425781,-16300.7568359375,-1.327404499053955,84.96943664550781,-787.9933471679688,43.76013946533203,-9.301488876342773,-0.009513314813375473
1731877052152.0,0.0,0.0,-20.0,0.0,0.0,0.0,0.0,0.0,0.0,0.0,0.0,0.0,0.0,0.0,0.0,0.0,0.0,11.327398300170898,0.0,0.0,-0.11459247767925262,66.98167419433594,-67.8218002319336,-16394.541015625,-37.09283447265625,44.320640563964844,-954.899658203125,44.14951705932617,-8.819841384887695,-0.20840318500995636
1731877052186.0,0.0,0.0,-20.0,0.0,0.0,0.0,0.0,0.0,0.0,0.0,0.0,0.0,0.0,0.0,0.0,0.0,0.0,11.060043334960938,0.0,0.0,-0.12284473329782486,-53.05836486816406,83.52030944824219,-16320.8740234375,40.61293029785156,-5.2765092849731445,-949.183837890625,44.05397415161133,-8.947718620300293,-0.06513380259275436
1731877052186.0,0.0,0.0,-20.0,0.0,0.0,0.0,0.0,0.0,0.0,0.0,0.0,0.0,0.0,0.0,0.0,0.0,0.0,11.060043334960938,0.0,0.0,-0.12284473329782486,-53.05836486816406,83.52030944824219,-16320.8740234375,40.61293029785156,-5.2765092849731445,-949.183837890625,44.05397415161133,-8.947718620300293,-0.06513380259275436
1731877052236.0,0.0,0.0,-20.0,0.0,0.0,0.0,0.0,0.0,0.0,0.0,0.0,0.0,0.0,0.0,0.0,0.0,0.0,10.773818016052246,0.0,0.0,-0.135008305311203,-15.424368858337402,-91.15040588378906,-16526.953125,-9.421245574951172,24.013729095458984,-1030.330322265625,44.57810592651367,-8.525390625,-0.042442627251148224
1731877052253.0,0.0,0.0,-20.0,0.0,0.0,0.0,0.0,0.0,0.0,0.0,0.0,0.0,0.0,0.0,0.0,0.0,0.0,10.619108200073242,0.0,0.0,-0.13895991444587708,70.90480041503906,142.40988159179688,-16373.111328125,44.40401840209961,13.3519926071167,-1118.4127197265625,44.870826721191406,-8.421688079833984,-0.4152527153491974
1731877052269.0,0.0,0.0,-20.0,0.0,0.0,0.0,0.0,0.0,0.0,0.0,0.0,0.0,0.0,0.0,0.0,0.0,0.0,10.459871292114258,0.0,0.0,-0.14290182292461395,45.19322967529297,-1.679904580116272,-16184.73046875,-82.74047088623047,-36.27910614013672,-912.7091064453125,44.52677917480469,-7.982795238494873,0.38097110390663147
1731877052286.0,0.0,0.0,-20.0,0.0,0.0,0.0,0.0,0.0,0.0,0.0,0.0,0.0,0.0,0.0,0.0,0.0,0.0,10.296119689941406,0.0,0.0,-0.14677545428276062,-87.88481903076172,-68.60523986816406,-16326.0693359375,2.475471019744873,-65.26055145263672,-1009.4127807617188,43.738765716552734,-8.236212730407715,0.0743521973490715
1731877052303.0,0.0,0.0,-20.0,0.0,0.0,0.0,0.0,0.0,0.0,0.0,0.0,0.0,0.0,0.0,0.0,0.0,0.0,10.127925872802734,0.0,0.0,-0.1506366729736328,-40.60942840576172,-74.99300384521484,-16501.369140625,-114.27700805664062,15.001046180725098,-1030.3114013671875,43.987754821777344,-7.566486835479736,0.20368193089962006
1731877052353.0,0.0,0.0,-20.0,0.0,0.0,0.0,0.0,0.0,0.0,0.0,0.0,0.0,0.0,0.0,0.0,0.0,0.0,9.77402114868164,0.0,0.0,-0.1619091033935547,-130.30276489257812,-144.793701171875,-16330.8134765625,-11.566747665405273,18.039411544799805,-1220.302734375,44.337669372558594,-7.454974174499512,0.08955176919698715
1731877052369.0,0.0,0.0,-20.0,0.0,0.0,0.0,0.0,0.0,0.0,0.0,0.0,0.0,0.0,0.0,0.0,0.0,0.0,9.58848762512207,0.0,0.0,-0.16556935012340546,91.10098266601562,-76.45211791992188,-16287.7822265625,-61.84025192260742,-41.83845138549805,-1155.718017578125,44.35535430908203,-7.507565021514893,0.6136260032653809
1731877052386.0,0.0,0.0,-20.0,0.0,0.0,0.0,0.0,0.0,0.0,0.0,0.0,0.0,0.0,0.0,0.0,0.0,0.0,9.398756980895996,0.0,0.0,-0.16926319897174835,121.3258285522461,-21.02872085571289,-16251.990234375,7.1088361740112305,104.8183822631836,-915.818359375,44.124549865722656,-7.838386058807373,0.40520912408828735
1731877052402.0,0.0,0.0,-20.0,0.0,0.0,0.0,0.0,0.0,0.0,0.0,0.0,0.0,0.0,0.0,0.0,0.0,0.0,9.20479679107666,0.0,0.0,-0.1728040724992752,-68.39860534667969,-37.287452697753906,-16472.037109375,-23.958789825439453,-36.20930862426758,-1066.8843994140625,43.524818420410156,-7.594055652618408,0.23972176015377045
1731877052436.0,0.0,0.0,-20.0,0.0,0.0,0.0,0.0,0.0,0.0,0.0,0.0,0.0,0.0,0.0,0.0,0.0,0.0,9.006778717041016,0.0,0.0,-0.17989619076251984,-114.44094848632812,-117.0616455078125,-16372.583984375,-17.53183937072754,31.94656753540039,-1489.25732421875,44.16872024536133,-7.462827205657959,-0.14841529726982117
1731877052469.0,0.0,0.0,-20.0,0.0,0.0,0.0,0.0,0.0,0.0,0.0,0.0,0.0,0.0,0.0,0.0,0.0,0.0,8.590567588806152,0.0,0.0,-0.18668578565120697,-80.61605072021484,239.09402465820312,-16413.20703125,25.139049530029297,17.313220977783203,-1383.6729736328125,44.55364227294922,-6.622218132019043,0.6557881832122803
1731877052486.0,0.0,0.0,-20.0,0.0,0.0,0.0,0.0,0.0,0.0,0.0,0.0,0.0,0.0,0.0,0.0,0.0,0.0,8.376640319824219,0.0,0.0,-0.19002805650234222,-0.31296584010124207,-22.03275489807129,-16449.396484375,73.12427520751953,-13.385862350463867,-1240.806884765625,44.88418197631836,-6.478726863861084,0.01940237544476986
1731877052503.0,0.0,0.0,-20.0,0.0,0.0,0.0,0.0,0.0,0.0,0.0,0.0,0.0,0.0,0.0,0.0,0.0,0.0,8.15888500213623,0.0,0.0,-0.19324573874473572,7.538799285888672,-4.245084285736084,-16422.193359375,26.58656883239746,-82.66070556640625,-1194.4521484375,44.2540397644043,-6.222505569458008,-0.2742467522621155
1731877052536.0,0.0,0.0,-20.0,0.0,0.0,0.0,0.0,0.0,0.0,0.0,0.0,0.0,0.0,0.0,0.0,0.0,0.0,7.937441349029541,0.0,0.0,-0.19973237812519073,105.8113021850586,42.70140075683594,-16234.037109375,84.22903442382812,48.48283004760742,-1871.8341064453125,44.7305793762207,-6.8543195724487305,-0.3024883270263672
1731877052553.0,0.0,0.0,-20.0,0.0,0.0,0.0,0.0,0.0,0.0,0.0,0.0,0.0,0.0,0.0,0.0,0.0,0.0,7.708566188812256,0.0,0.0,-0.2027888149023056,-74.85686492919922,-61.609352111816406,-16404.359375,-54.3554801940918,25.212604522705078,-1135.413330078125,44.415409088134766,-5.785409450531006,-0.14642731845378876
1731877052586.0,0.0,0.0,-20.0,0.0,0.0,0.0,0.0,0.0,0.0,0.0,0.0,0.0,0.0,0.0,0.0,0.0,0.0,7.2402663230896,0.0,0.0,-0.20889052748680115,193.14988708496094,-8.44448184967041,-16437.14453125,88.8893814086914,-20.194683074951172,-1400.63720703125,44.504268646240234,-5.623861312866211,-0.26880592107772827
1731877052586.0,0.0,0.0,-20.0,0.0,0.0,0.0,0.0,0.0,0.0,0.0,0.0,0.0,0.0,0.0,0.0,0.0,0.0,7.2402663230896,0.0,0.0,-0.20889052748680115,193.14988708496094,-8.44448184967041,-16437.14453125,88.8893814086914,-20.194683074951172,-1400.63720703125,44.504268646240234,-5.623861312866211,-0.26880592107772827
1731877052636.0,0.0,0.0,-20.0,0.0,0.0,0.0,0.0,0.0,0.0,0.0,0.0,0.0,0.0,0.0,0.0,0.0,0.0,6.758164882659912,0.0,0.0,-0.2175280898809433,-8.818248748779297,69.02912139892578,-16462.01953125,-114.39744567871094,-24.0854549407959,-1429.829345703125,44.37792205810547,-4.883322715759277,0.15348194539546967
1731877052653.0,0.0,0.0,-20.0,0.0,0.0,0.0,0.0,0.0,0.0,0.0,0.0,0.0,0.0,0.0,0.0,0.0,0.0,6.5088958740234375,0.0,0.0,-0.22030118107795715,17.958641052246094,20.822553634643555,-16160.6025390625,-28.06403350830078,-10.22559928894043,-1421.17529296875,45.520023345947266,-5.284657001495361,0.37838539481163025
1731877052670.0,0.0,0.0,-20.0,0.0,0.0,0.0,0.0,0.0,0.0,0.0,0.0,0.0,0.0,0.0,0.0,0.0,0.0,6.2564496994018555,0.0,0.0,-0.22301265597343445,-88.95346069335938,77.48534393310547,-16411.623046875,-25.671968460083008,40.046810150146484,-1943.591064453125,45.015647888183594,-5.637871742248535,0.3805123567581177
1731877052686.0,0.0,0.0,-20.0,0.0,0.0,0.0,0.0,0.0,0.0,0.0,0.0,0.0,0.0,0.0,0.0,0.0,0.0,6.000895977020264,0.0,0.0,-0.2256617695093155,166.7010955810547,8.8732271194458,-16405.287109375,83.83908081054688,-127.78089141845703,-1828.859375,44.61172866821289,-4.560079097747803,0.3602699041366577
1731877052703.0,0.0,0.0,-20.0,0.0,0.0,0.0,0.0,0.0,0.0,0.0,0.0,0.0,0.0,0.0,0.0,0.0,0.0,5.742306709289551,0.0,0.0,-0.2282291054725647,178.0184326171875,15.51820182800293,-16399.513671875,8.251626014709473,28.009899139404297,-1776.8348388671875,44.737586975097656,-4.337738037109375,-0.16489876806735992
1731877052753.0,0.0,0.0,-20.0,0.0,0.0,0.0,0.0,0.0,0.0,0.0,0.0,0.0,0.0,0.0,0.0,0.0,0.0,5.213517189025879,0.0,0.0,-0.23558545112609863,79.97943878173828,-7.1549859046936035,-16133.2080078125,90.6983871459961,-110.01656341552734,-2100.644775390625,44.99271774291992,-3.6348283290863037,0.4203847050666809
1731877052770.0,0.0,0.0,-20.0,0.0,0.0,0.0,0.0,0.0,0.0,0.0,0.0,0.0,0.0,0.0,0.0,0.0,0.0,4.9435553550720215,0.0,0.0,-0.2378961741924286,-66.85926055908203,61.72884750366211,-16419.4453125,-42.12522888183594,-57.532840728759766,-1618.6707763671875,44.478763580322266,-4.024147987365723,-0.302157461643219
1731877052786.0,0.0,0.0,-20.0,0.0,0.0,0.0,0.0,0.0,0.0,0.0,0.0,0.0,0.0,0.0,0.0,0.0,0.0,4.6709465980529785,0.0,0.0,-0.2401738464832306,-12.183096885681152,58.87699508666992,-16478.29296875,-33.29077911376953,-63.430641174316406,-1913.588623046875,45.29440689086914,-3.7327589988708496,0.4072502553462982
1731877052803.0,0.0,0.0,-20.0,0.0,0.0,0.0,0.0,0.0,0.0,0.0,0.0,0.0,0.0,0.0,0.0,0.0,0.0,4.395727634429932,0.0,0.0,-0.24236759543418884,-27.971084594726562,-136.40853881835938,-16469.201171875,55.55561828613281,-40.63051986694336,-2016.9139404296875,44.766082763671875,-3.5082197189331055,-0.20690399408340454
1731877052853.0,0.0,0.0,-20.0,0.0,0.0,0.0,0.0,0.0,0.0,0.0,0.0,0.0,0.0,0.0,0.0,0.0,0.0,3.8354523181915283,0.0,0.0,-0.24851125478744507,102.87145233154297,0.6457241177558899,-16248.2197265625,11.65186882019043,-109.24171447753906,-2001.7916259765625,45.118125915527344,-2.466413736343384,0.3597140312194824
1731877052870.0,0.0,0.0,-20.0,0.0,0.0,0.0,0.0,0.0,0.0,0.0,0.0,0.0,0.0,0.0,0.0,0.0,0.0,3.5506792068481445,0.0,0.0,-0.2504313886165619,-83.75923919677734,-13.74267292022705,-16367.8544921875,-10.697135925292969,-34.84184646606445,-1522.9755859375,44.68061828613281,-2.8800861835479736,-0.230900377035141
1731877052887.0,0.0,0.0,-20.0,0.0,0.0,0.0,0.0,0.0,0.0,0.0,0.0,0.0,0.0,0.0,0.0,0.0,0.0,3.2637057304382324,0.0,0.0,-0.25229474902153015,7.051485061645508,-23.969472885131836,-16327.5185546875,-21.167436599731445,62.327545166015625,-1954.53955078125,44.944034576416016,-2.4250569343566895,0.45734259486198425
1731877052903.0,0.0,0.0,-20.0,0.0,0.0,0.0,0.0,0.0,0.0,0.0,0.0,0.0,0.0,0.0,0.0,0.0,0.0,2.974597692489624,0.0,0.0,-0.2540610432624817,29.16643524169922,171.64051818847656,-16409.7734375,1.7761781215667725,79.59688568115234,-1918.670654296875,44.847293853759766,-2.280024766921997,-0.3780324161052704
1731877052937.0,0.0,0.0,-20.0,0.0,0.0,0.0,0.0,0.0,0.0,0.0,0.0,0.0,0.0,0.0,0.0,0.0,0.0,2.683465003967285,0.0,0.0,-0.25739485025405884,58.62432861328125,-82.3089828491211,-16482.69921875,-10.42087173461914,31.952667236328125,-1840.819091796875,45.0540657043457,-2.006955862045288,0.0623941607773304
1731877052970.0,0.0,0.0,-20.0,0.0,0.0,0.0,0.0,0.0,0.0,0.0,0.0,0.0,0.0,0.0,0.0,0.0,0.0,2.0917654037475586,0.0,0.0,-0.26046404242515564,-191.276123046875,-20.254308700561523,-16337.708984375,106.40225982666016,-62.504276275634766,-1968.330810546875,44.91014862060547,-1.6383507251739502,0.033806588500738144
1731877052987.0,0.0,0.0,-20.0,0.0,0.0,0.0,0.0,0.0,0.0,0.0,0.0,0.0,0.0,0.0,0.0,0.0,0.0,1.7932956218719482,0.0,0.0,-0.26187363266944885,-18.03345489501953,-138.63035583496094,-16416.65234375,5.616849899291992,-100.74224853515625,-1733.4720458984375,44.66664505004883,-0.7517038583755493,0.24455375969409943
1731877053003.0,0.0,0.0,-20.0,0.0,0.0,0.0,0.0,0.0,0.0,0.0,0.0,0.0,0.0,0.0,0.0,0.0,0.0,1.4932106733322144,0.0,0.0,-0.263201504945755,-121.60596466064453,130.84938049316406,-16198.0791015625,-41.58816909790039,16.106645584106445,-1809.793212890625,44.19512939453125,-1.2289775609970093,-0.2722267508506775
1731877053037.0,0.0,0.0,-20.0,0.0,0.0,0.0,0.0,0.0,0.0,0.0,0.0,0.0,0.0,0.0,0.0,0.0,0.0,1.1916041374206543,0.0,0.0,-0.26566794514656067,-117.62644958496094,-148.2353973388672,-16431.650390625,84.31356811523438,-14.497758865356445,-1899.9830322265625,45.492340087890625,-0.9688031077384949,-0.1392693668603897
1731877053070.0,0.0,0.0,-20.0,0.0,0.0,0.0,0.0,0.0,0.0,0.0,0.0,0.0,0.0,0.0,0.0,0.0,0.0,0.581437885761261,0.0,0.0,-0.2678467929363251,231.40736389160156,45.24021911621094,-16196.9482421875,16.788917541503906,-36.674320220947266,-1940.2755126953125,44.66304016113281,-0.24770314991474152,-0.3215593099594116
1731877053087.0,0.0,0.0,-20.0,0.0,0.0,0.0,0.0,0.0,0.0,0.0,0.0,0.0,0.0,0.0,0.0,0.0,0.0,0.2745080888271332,0.0,0.0,-0.2688308656215668,50.453575134277344,126.50119018554688,-16317.6796875,-22.36840057373047,-44.41657638549805,-1937.9224853515625,45.30675506591797,-0.10826220363378525,-0.1936458945274353
1731877053103.0,0.0,0.0,-20.0,0.0,0.0,0.0,0.0,0.0,0.0,0.0,0.0,0.0,0.0,0.0,0.0,0.0,0.0,-0.033538818359375,0.0,0.0,-0.2697323262691498,190.3610382080078,-155.15220642089844,-16447.6171875,-89.5223617553711,-31.007705688476562,-2211.579345703125,45.308349609375,0.3303746283054352,-0.14318038523197174
1731877053137.0,0.0,0.0,-20.0,0.0,0.0,0.0,0.0,0.0,0.0,0.0,0.0,0.0,0.0,0.0,0.0,0.0,0.0,-0.3426513671875,0.0,0.0,-0.2712983191013336,-71.67249298095703,103.32246398925781,-16190.017578125,-1.960371494293213,18.71935272216797,-1929.12744140625,44.7498893737793,0.25121134519577026,-0.2587132155895233
1731877053170.0,0.0,0.0,-20.0,0.0,0.0,0.0,0.0,0.0,0.0,0.0,0.0,0.0,0.0,0.0,0.0,0.0,0.0,-0.965179443359375,0.0,0.0,-0.27257347106933594,20.038543701171875,-48.30971145629883,-16327.6220703125,62.311805725097656,-31.848302841186523,-2091.684326171875,44.93550109863281,1.0960959196090698,-0.21406252682209015
1731877053187.0,0.0,0.0,-20.0,0.0,0.0,0.0,0.0,0.0,0.0,0.0,0.0,0.0,0.0,0.0,0.0,0.0,0.0,-1.27752685546875,0.0,0.0,-0.2730896770954132,-109.65802764892578,46.11922073364258,-16471.921875,-12.484561920166016,134.26513671875,-2034.7725830078125,45.32448959350586,0.9725545048713684,-0.307491272687912
1731877053187.0,0.0,0.0,-20.0,0.0,0.0,0.0,0.0,0.0,0.0,0.0,0.0,0.0,0.0,0.0,0.0,0.0,0.0,-1.27752685546875,0.0,0.0,-0.2730896770954132,-109.65802764892578,46.11922073364258,-16471.921875,-12.484561920166016,134.26513671875,-2034.7725830078125,45.32448959350586,0.9725545048713684,-0.307491272687912
1731877053237.0,0.0,0.0,-20.0,0.0,0.0,0.0,0.0,0.0,0.0,0.0,0.0,0.0,0.0,0.0,0.0,0.0,0.0,-1.9039306640625,0.0,0.0,-0.27420419454574585,-22.835981369018555,23.909133911132812,-16175.2880859375,27.77919578552246,-6.2020487785339355,-2056.6962890625,44.827537536621094,2.275245189666748,0.4301126003265381
1731877053253.0,0.0,0.0,-20.0,0.0,0.0,0.0,0.0,0.0,0.0,0.0,0.0,0.0,0.0,0.0,0.0,0.0,0.0,-2.2181396484375,0.0,0.0,-0.2744198143482208,79.85321044921875,-150.52328491210938,-16350.775390625,0.7624874114990234,-109.01786804199219,-2377.416015625,44.94389343261719,1.3737168312072754,0.27198708057403564
1731877053287.0,0.0,0.0,-20.0,0.0,0.0,0.0,0.0,0.0,0.0,0.0,0.0,0.0,0.0,0.0,0.0,0.0,0.0,-2.84722900390625,0.0,0.0,-0.2746284604072571,36.29806137084961,-14.090778350830078,-16272.24609375,44.88343811035156,50.17182922363281,-1905.45068359375,44.80642318725586,2.4666829109191895,0.1339668184518814
1731877053287.0,0.0,0.0,-20.0,0.0,0.0,0.0,0.0,0.0,0.0,0.0,0.0,0.0,0.0,0.0,0.0,0.0,0.0,-2.84722900390625,0.0,0.0,-0.2746284604072571,36.29806137084961,-14.090778350830078,-16272.24609375,44.88343811035156,50.17182922363281,-1905.45068359375,44.80642318725586,2.4666829109191895,0.1339668184518814
1731877053337.0,0.0,0.0,-20.0,0.0,0.0,0.0,0.0,0.0,0.0,0.0,0.0,0.0,0.0,0.0,0.0,0.0,0.0,-3.47662353515625,0.0,0.0,-0.27436497807502747,-143.52000427246094,1.384844422340393,-16308.6806640625,-18.624494552612305,15.839764595031738,-2144.823486328125,44.60609436035156,2.4067952632904053,0.09700927138328552
1731877053353.0,0.0,0.0,-20.0,0.0,0.0,0.0,0.0,0.0,0.0,0.0,0.0,0.0,0.0,0.0,0.0,0.0,0.0,-3.791015625,0.0,0.0,-0.2741297781467438,52.119300842285156,-2.0411813259124756,-16310.177734375,-61.929569244384766,-55.553131103515625,-1604.1043701171875,45.565189361572266,2.745344877243042,0.2239159792661667
1731877053387.0,0.0,0.0,-20.0,0.0,0.0,0.0,0.0,0.0,0.0,0.0,0.0,0.0,0.0,0.0,0.0,0.0,0.0,-4.418914794921875,0.0,0.0,-0.27342694997787476,106.56476593017578,26.08786964416504,-16332.4765625,124.44633483886719,108.79479217529297,-2002.9130859375,44.566410064697266,3.6387038230895996,-0.15273740887641907
1731877053387.0,0.0,0.0,-20.0,0.0,0.0,0.0,0.0,0.0,0.0,0.0,0.0,0.0,0.0,0.0,0.0,0.0,0.0,-4.418914794921875,0.0,0.0,-0.27342694997787476,106.56476593017578,26.08786964416504,-16332.4765625,124.44633483886719,108.79479217529297,-2002.9130859375,44.566410064697266,3.6387038230895996,-0.15273740887641907
1731877053403.0,0.0,0.0,-20.0,0.0,0.0,0.0,0.0,0.0,0.0,0.0,0.0,0.0,0.0,0.0,0.0,0.0,0.0,-4.73223876953125,0.0,0.0,-0.2729587256908417,-185.78759765625,-91.82137298583984,-16344.521484375,-6.066648483276367,64.5315170288086,-2140.867431640625,44.9176139831543,3.541958808898926,0.024653416126966476
1731877053437.0,0.0,0.0,-20.0,0.0,0.0,0.0,0.0,0.0,0.0,0.0,0.0,0.0,0.0,0.0,0.0,0.0,0.0,-5.045013427734375,0.0,0.0,-0.2717934548854828,159.27342224121094,73.91224670410156,-16307.962890625,43.52489471435547,-33.88455581665039,-2064.1689453125,44.502281188964844,4.477827548980713,0.17578387260437012
1731877053470.0,0.0,0.0,-20.0,0.0,0.0,0.0,0.0,0.0,0.0,0.0,0.0,0.0,0.0,0.0,0.0,0.0,0.0,-5.6671142578125,0.0,0.0,-0.2703300714492798,-176.22959899902344,31.410852432250977,-16392.755859375,-117.2969970703125,-78.78759765625,-2061.228759765625,45.438621520996094,4.022224426269531,-0.2078573852777481
1731877053487.0,0.0,0.0,-20.0,0.0,0.0,0.0,0.0,0.0,0.0,0.0,0.0,0.0,0.0,0.0,0.0,0.0,0.0,-5.976898193359375,0.0,0.0,-0.26948243379592896,248.68359375,-221.55479431152344,-16403.392578125,18.323373794555664,-10.540105819702148,-2151.525146484375,44.842166900634766,4.433982849121094,0.5716916918754578
1731877053503.0,0.0,0.0,-20.0,0.0,0.0,0.0,0.0,0.0,0.0,0.0,0.0,0.0,0.0,0.0,0.0,0.0,0.0,-6.28570556640625,0.0,0.0,-0.26855945587158203,-138.0946502685547,193.27708435058594,-16415.34765625,47.73290252685547,-37.34096908569336,-2070.01806640625,44.74061965942383,4.952613353729248,-0.22426751255989075
1731877053537.0,0.0,0.0,-20.0,0.0,0.0,0.0,0.0,0.0,0.0,0.0,0.0,0.0,0.0,0.0,0.0,0.0,0.0,-6.59344482421875,0.0,0.0,-0.26649653911590576,11.162667274475098,78.71116638183594,-16310.7451171875,-122.8571548461914,-10.877556800842285,-2181.243408203125,44.40193557739258,4.86445426940918,-0.029879268258810043
1731877053554.0,0.0,0.0,-20.0,0.0,0.0,0.0,0.0,0.0,0.0,0.0,0.0,0.0,0.0,0.0,0.0,0.0,0.0,-6.898834228515625,0.0,0.0,-0.2653496265411377,-20.494321823120117,-139.08505249023438,-16437.884765625,-8.850532531738281,-11.0086088180542,-2119.8701171875,44.310787200927734,5.1669769287109375,-0.56828773021698
1731877053587.0,0.0,0.0,-20.0,0.0,0.0,0.0,0.0,0.0,0.0,0.0,0.0,0.0,0.0,0.0,0.0,0.0,0.0,-7.505584716796875,0.0,0.0,-0.26283353567123413,-26.273883819580078,-64.89246368408203,-16226.6982421875,-42.07687759399414,7.180708885192871,-1757.9730224609375,44.84324264526367,5.895455837249756,-0.18175916373729706
1731877053587.0,0.0,0.0,-20.0,0.0,0.0,0.0,0.0,0.0,0.0,0.0,0.0,0.0,0.0,0.0,0.0,0.0,0.0,-7.505584716796875,0.0,0.0,-0.26283353567123413,-26.273883819580078,-64.89246368408203,-16226.6982421875,-42.07687759399414,7.180708885192871,-1757.9730224609375,44.84324264526367,5.895455837249756,-0.18175916373729706
1731877053637.0,0.0,0.0,-20.0,0.0,0.0,0.0,0.0,0.0,0.0,0.0,0.0,0.0,0.0,0.0,0.0,0.0,0.0,-8.10638427734375,0.0,0.0,-0.25853168964385986,176.4917755126953,-7.123298645019531,-16228.8876953125,34.37133026123047,-5.427124500274658,-2087.30810546875,44.46583557128906,6.335173606872559,-0.13244570791721344
1731877053653.0,0.0,0.0,-20.0,0.0,0.0,0.0,0.0,0.0,0.0,0.0,0.0,0.0,0.0,0.0,0.0,0.0,0.0,-8.402618408203125,0.0,0.0,-0.2569579482078552,-200.69473266601562,115.45133972167969,-16360.1298828125,40.987396240234375,-54.73876953125,-1430.4288330078125,44.81217575073242,6.593667984008789,-0.08307690173387527
1731877053670.0,0.0,0.0,-20.0,0.0,0.0,0.0,0.0,0.0,0.0,0.0,0.0,0.0,0.0,0.0,0.0,0.0,0.0,-8.69708251953125,0.0,0.0,-0.25531336665153503,36.33940124511719,76.23482513427734,-16440.70703125,13.93082046508789,107.0415267944336,-1652.1590576171875,44.39697265625,6.279520511627197,-0.0750003233551979
1731877053687.0,0.0,0.0,-20.0,0.0,0.0,0.0,0.0,0.0,0.0,0.0,0.0,0.0,0.0,0.0,0.0,0.0,0.0,-8.989654541015625,0.0,0.0,-0.2535726726055145,99.19756317138672,-71.6193618774414,-16442.935546875,13.434236526489258,5.338244438171387,-1947.65673828125,44.48423385620117,7.069986343383789,-0.7066583633422852
1731877053704.0,0.0,0.0,-20.0,0.0,0.0,0.0,0.0,0.0,0.0,0.0,0.0,0.0,0.0,0.0,0.0,0.0,0.0,-9.28021240234375,0.0,0.0,-0.2517734467983246,12.447257995605469,14.924285888671875,-16292.7646484375,71.3670654296875,11.097997665405273,-1903.25537109375,44.07522201538086,7.397723197937012,-0.23151059448719025
1731877053754.0,0.0,0.0,-20.0,0.0,0.0,0.0,0.0,0.0,0.0,0.0,0.0,0.0,0.0,0.0,0.0,0.0,0.0,-9.852874755859375,0.0,0.0,-0.24595531821250916,-23.642026901245117,-46.89378356933594,-16354.7783203125,21.168195724487305,0.5493056178092957,-1945.720947265625,44.13420104980469,7.65238094329834,-0.37195107340812683
1731877053771.0,0.0,0.0,-20.0,0.0,0.0,0.0,0.0,0.0,0.0,0.0,0.0,0.0,0.0,0.0,0.0,0.0,0.0,-10.134735107421875,0.0,0.0,-0.24387763440608978,193.6892547607422,1.5739920139312744,-16443.974609375,-39.51839065551758,-81.15430450439453,-1744.8143310546875,44.58698654174805,8.039351463317871,-0.31041377782821655
1731877053804.0,0.0,0.0,-20.0,0.0,0.0,0.0,0.0,0.0,0.0,0.0,0.0,0.0,0.0,0.0,0.0,0.0,0.0,-10.69122314453125,0.0,0.0,-0.2395346462726593,-89.27754211425781,-92.9499740600586,-16380.0146484375,49.71940612792969,12.21641731262207,-1875.5693359375,44.647525787353516,8.077505111694336,0.01913452334702015
1731877053804.0,0.0,0.0,-20.0,0.0,0.0,0.0,0.0,0.0,0.0,0.0,0.0,0.0,0.0,0.0,0.0,0.0,0.0,-10.69122314453125,0.0,0.0,-0.2395346462726593,-89.27754211425781,-92.9499740600586,-16380.0146484375,49.71940612792969,12.21641731262207,-1875.5693359375,44.647525787353516,8.077505111694336,0.01913452334702015
1731877053821.0,0.0,0.0,-20.0,0.0,0.0,0.0,0.0,0.0,0.0,0.0,0.0,0.0,0.0,0.0,0.0,0.0,0.0,-10.9656982421875,0.0,0.0,-0.23723775148391724,-92.71922302246094,-72.60401153564453,-16552.119140625,-40.228294372558594,155.87728881835938,-1884.3720703125,43.91303634643555,8.095672607421875,-0.5044674873352051
1731877053871.0,0.0,0.0,-20.0,0.0,0.0,0.0,0.0,0.0,0.0,0.0,0.0,0.0,0.0,0.0,0.0,0.0,0.0,-11.5040283203125,0.0,0.0,-0.23003746569156647,65.20954895019531,-100.73143768310547,-16590.54296875,-36.099822998046875,66.54916381835938,-1609.141845703125,44.42543411254883,9.04574966430664,0.139131098985672
1731877053887.0,0.0,0.0,-20.0,0.0,0.0,0.0,0.0,0.0,0.0,0.0,0.0,0.0,0.0,0.0,0.0,0.0,0.0,-11.767608642578125,0.0,0.0,-0.22749654948711395,62.58084487915039,11.277202606201172,-16251.20703125,-134.3986053466797,-158.8582000732422,-2001.2774658203125,44.40101623535156,9.368746757507324,-0.2119167596101761
1731877053904.0,0.0,0.0,-20.0,0.0,0.0,0.0,0.0,0.0,0.0,0.0,0.0,0.0,0.0,0.0,0.0,0.0,0.0,-12.0283203125,0.0,0.0,-0.22489197552204132,35.429908752441406,276.4582824707031,-16365.7138671875,-19.126365661621094,-74.68869018554688,-1981.005615234375,43.601295471191406,9.096494674682617,-0.46722549200057983
1731877053937.0,0.0,0.0,-20.0,0.0,0.0,0.0,0.0,0.0,0.0,0.0,0.0,0.0,0.0,0.0,0.0,0.0,0.0,-12.2860107421875,0.0,0.0,-0.2195352017879486,118.88636016845703,234.82693481445312,-16403.30078125,-85.17701721191406,12.438549041748047,-1788.365478515625,43.30607223510742,9.497218132019043,0.5622865557670593
1731877053954.0,0.0,0.0,-20.0,0.0,0.0,0.0,0.0,0.0,0.0,0.0,0.0,0.0,0.0,0.0,0.0,0.0,0.0,-12.53759765625,0.0,0.0,-0.21676567196846008,24.892223358154297,40.13410186767578,-16367.0703125,103.59491729736328,12.629432678222656,-1795.823486328125,43.930335998535156,9.270009994506836,-0.3105211555957794
1731877053987.0,0.0,0.0,-20.0,0.0,0.0,0.0,0.0,0.0,0.0,0.0,0.0,0.0,0.0,0.0,0.0,0.0,0.0,-13.0311279296875,0.0,0.0,-0.21102674305438995,330.4169921875,33.6788330078125,-16549.478515625,101.93766784667969,-90.31500244140625,-1699.49365234375,43.54631805419922,9.709890365600586,0.1499045342206955
1731877053987.0,0.0,0.0,-20.0,0.0,0.0,0.0,0.0,0.0,0.0,0.0,0.0,0.0,0.0,0.0,0.0,0.0,0.0,-13.0311279296875,0.0,0.0,-0.21102674305438995,330.4169921875,33.6788330078125,-16549.478515625,101.93766784667969,-90.31500244140625,-1699.49365234375,43.54631805419922,9.709890365600586,0.1499045342206955
1731877054037.0,0.0,0.0,-20.0,0.0,0.0,0.0,0.0,0.0,0.0,0.0,0.0,0.0,0.0,0.0,0.0,0.0,0.0,-13.511383056640625,0.0,0.0,-0.2019469439983368,-18.847440719604492,-51.64036560058594,-16371.8408203125,-71.48821258544922,-38.3905143737793,-1594.7279052734375,43.95816421508789,10.440645217895508,0.23458023369312286
1731877054054.0,0.0,0.0,-20.0,0.0,0.0,0.0,0.0,0.0,0.0,0.0,0.0,0.0,0.0,0.0,0.0,0.0,0.0,-13.7427978515625,0.0,0.0,-0.19880624115467072,47.742130279541016,-129.0402069091797,-16484.345703125,-111.86316680908203,-91.80916595458984,-1589.2127685546875,43.06763458251953,10.743016242980957,-0.041213516145944595
1731877054087.0,0.0,0.0,-20.0,0.0,0.0,0.0,0.0,0.0,0.0,0.0,0.0,0.0,0.0,0.0,0.0,0.0,0.0,-14.19476318359375,0.0,0.0,-0.1923828423023224,-83.04283905029297,-135.82200622558594,-16396.142578125,-6.060133457183838,50.01456069946289,-1495.0703125,43.621734619140625,11.253360748291016,-0.11500227451324463
1731877054104.0,0.0,0.0,-20.0,0.0,0.0,0.0,0.0,0.0,0.0,0.0,0.0,0.0,0.0,0.0,0.0,0.0,0.0,-14.41522216796875,0.0,0.0,-0.18905411660671234,-64.111328125,-50.48564147949219,-16437.24609375,163.54547119140625,13.293116569519043,-1423.531005859375,43.599029541015625,11.36301326751709,0.5508542060852051
1731877054121.0,0.0,0.0,-20.0,0.0,0.0,0.0,0.0,0.0,0.0,0.0,0.0,0.0,0.0,0.0,0.0,0.0,0.0,-14.6318359375,0.0,0.0,-0.18574582040309906,-9.203967094421387,63.7526741027832,-16373.1044921875,-101.65771484375,39.06596374511719,-1551.013427734375,43.79319381713867,11.837879180908203,-0.016530795022845268
1731877054154.0,0.0,0.0,-20.0,0.0,0.0,0.0,0.0,0.0,0.0,0.0,0.0,0.0,0.0,0.0,0.0,0.0,0.0,-14.844696044921875,0.0,0.0,-0.1788771003484726,-102.468505859375,15.516552925109863,-16442.3046875,158.3540496826172,27.986385345458984,-1589.06298828125,44.07494354248047,12.107906341552734,-0.2888268530368805
1731877054188.0,0.0,0.0,-20.0,0.0,0.0,0.0,0.0,0.0,0.0,0.0,0.0,0.0,0.0,0.0,0.0,0.0,0.0,-15.250579833984375,0.0,0.0,-0.17178212106227875,42.788978576660156,-57.90574264526367,-16466.27734375,-44.50672912597656,22.01239776611328,-1399.0836181640625,42.90383529663086,11.396081924438477,0.29430899024009705
1731877054204.0,0.0,0.0,-20.0,0.0,0.0,0.0,0.0,0.0,0.0,0.0,0.0,0.0,0.0,0.0,0.0,0.0,0.0,-15.447418212890625,0.0,0.0,-0.1682012975215912,-177.48178100585938,-40.28110885620117,-16418.009765625,-143.9720458984375,30.757335662841797,-1300.8280029296875,43.5073356628418,11.399984359741211,-0.04525940120220184
1731877054204.0,0.0,0.0,-20.0,0.0,0.0,0.0,0.0,0.0,0.0,0.0,0.0,0.0,0.0,0.0,0.0,0.0,0.0,-15.447418212890625,0.0,0.0,-0.1682012975215912,-177.48178100585938,-40.28110885620117,-16418.009765625,-143.9720458984375,30.757335662841797,-1300.8280029296875,43.5073356628418,11.399984359741211,-0.04525940120220184
1731877054254.0,0.0,0.0,-20.0,0.0,0.0,0.0,0.0,0.0,0.0,0.0,0.0,0.0,0.0,0.0,0.0,0.0,0.0,-15.828704833984375,0.0,0.0,-0.1571296900510788,-95.67059326171875,134.3017120361328,-16480.759765625,-29.04793357849121,16.539155960083008,-1156.931884765625,43.67265319824219,12.300483703613281,-0.37555286288261414
1731877054271.0,0.0,0.0,-20.0,0.0,0.0,0.0,0.0,0.0,0.0,0.0,0.0,0.0,0.0,0.0,0.0,0.0,0.0,-16.0087890625,0.0,0.0,-0.15328539907932281,230.42739868164062,37.14198303222656,-16336.1513671875,114.20974731445312,-122.06549072265625,-1088.04541015625,42.6346435546875,12.58271312713623,-0.028608936816453934
1731877054304.0,0.0,0.0,-20.0,0.0,0.0,0.0,0.0,0.0,0.0,0.0,0.0,0.0,0.0,0.0,0.0,0.0,0.0,-16.355712890625,0.0,0.0,-0.14566457271575928,74.25924682617188,-137.81541442871094,-16415.296875,31.128652572631836,15.419513702392578,-1120.941650390625,42.8924446105957,12.888734817504883,-0.26541218161582947
1731877054304.0,0.0,0.0,-20.0,0.0,0.0,0.0,0.0,0.0,0.0,0.0,0.0,0.0,0.0,0.0,0.0,0.0,0.0,-16.355712890625,0.0,0.0,-0.14566457271575928,74.25924682617188,-137.81541442871094,-16415.296875,31.128652572631836,15.419513702392578,-1120.941650390625,42.8924446105957,12.888734817504883,-0.26541218161582947
1731877054355.0,0.0,0.0,-20.0,0.0,0.0,0.0,0.0,0.0,0.0,0.0,0.0,0.0,0.0,0.0,0.0,0.0,0.0,-16.685089111328125,0.0,0.0,-0.13380539417266846,-97.35000610351562,39.49590301513672,-16442.94140625,-50.563323974609375,41.390663146972656,-678.0068359375,43.01249694824219,13.122970581054688,0.6993098258972168
1731877054371.0,0.0,0.0,-20.0,0.0,0.0,0.0,0.0,0.0,0.0,0.0,0.0,0.0,0.0,0.0,0.0,0.0,0.0,-16.838409423828125,0.0,0.0,-0.1298350989818573,7.9575886726379395,127.88411712646484,-16458.896484375,-3.636167526245117,-92.76165771484375,-765.9075317382812,43.0676155090332,12.506647109985352,-0.605867862701416
1731877054405.0,0.0,0.0,-20.0,0.0,0.0,0.0,0.0,0.0,0.0,0.0,0.0,0.0,0.0,0.0,0.0,0.0,0.0,-17.13128662109375,0.0,0.0,-0.12166959792375565,22.370670318603516,-167.51065063476562,-16348.966796875,29.988161087036133,90.47383117675781,-775.2921142578125,43.03721237182617,13.483148574829102,-0.6240415573120117
1731877054405.0,0.0,0.0,-20.0,0.0,0.0,0.0,0.0,0.0,0.0,0.0,0.0,0.0,0.0,0.0,0.0,0.0,0.0,-17.13128662109375,0.0,0.0,-0.12166959792375565,22.370670318603516,-167.51065063476562,-16348.966796875,29.988161087036133,90.47383117675781,-775.2921142578125,43.03721237182617,13.483148574829102,-0.6240415573120117
1731877054454.0,0.0,0.0,-20.0,0.0,0.0,0.0,0.0,0.0,0.0,0.0,0.0,0.0,0.0,0.0,0.0,0.0,0.0,-17.40545654296875,0.0,0.0,-0.10926132649183273,-51.662574768066406,-46.00096130371094,-16421.607421875,72.88177490234375,-23.989255905151367,-591.281005859375,43.17900466918945,13.799867630004883,0.32424473762512207
1731877054471.0,0.0,0.0,-20.0,0.0,0.0,0.0,0.0,0.0,0.0,0.0,0.0,0.0,0.0,0.0,0.0,0.0,0.0,-17.5306396484375,0.0,0.0,-0.10506348311901093,174.90550231933594,210.53170776367188,-16463.58984375,107.46073150634766,65.75690460205078,-816.291015625,42.47783279418945,14.378281593322754,-0.22577118873596191
1731877054488.0,0.0,0.0,-20.0,0.0,0.0,0.0,0.0,0.0,0.0,0.0,0.0,0.0,0.0,0.0,0.0,0.0,0.0,-17.65106201171875,0.0,0.0,-0.1007431298494339,148.69252014160156,-98.47402954101562,-16323.001953125,98.11328887939453,-10.912957191467285,-886.8864135742188,42.64496612548828,13.10240650177002,0.016025878489017487
1731877054505.0,0.0,0.0,-20.0,0.0,0.0,0.0,0.0,0.0,0.0,0.0,0.0,0.0,0.0,0.0,0.0,0.0,0.0,-17.7664794921875,0.0,0.0,-0.09651932865381241,103.51982879638672,140.45401000976562,-16363.884765625,-43.714599609375,24.101537704467773,-727.6062622070312,42.38191604614258,13.757485389709473,-0.15615832805633545
1731877054521.0,0.0,0.0,-20.0,0.0,0.0,0.0,0.0,0.0,0.0,0.0,0.0,0.0,0.0,0.0,0.0,0.0,0.0,-17.877105712890625,0.0,0.0,-0.09217457473278046,54.78212356567383,-49.661746978759766,-16412.701171875,-8.675454139709473,-10.19469928741455,-751.911865234375,42.720977783203125,13.901063919067383,-0.33146026730537415
1731877054571.0,0.0,0.0,-20.0,0.0,0.0,0.0,0.0,0.0,0.0,0.0,0.0,0.0,0.0,0.0,0.0,0.0,0.0,-18.07843017578125,0.0,0.0,-0.07918098568916321,85.36587524414062,103.76152801513672,-16467.689453125,-2.4653587341308594,93.5171127319336,-578.8689575195312,42.964271545410156,13.780184745788574,-0.557913064956665
1731877054588.0,0.0,0.0,-20.0,0.0,0.0,0.0,0.0,0.0,0.0,0.0,0.0,0.0,0.0,0.0,0.0,0.0,0.0,-18.169189453125,0.0,0.0,-0.07483679801225662,-263.718505859375,21.996116638183594,-16383.708984375,1.8419841527938843,-49.193443298339844,-418.6265869140625,42.37127685546875,13.959880828857422,-0.015915829688310623
1731877054604.0,0.0,0.0,-20.0,0.0,0.0,0.0,0.0,0.0,0.0,0.0,0.0,0.0,0.0,0.0,0.0,0.0,0.0,-18.25494384765625,0.0,0.0,-0.07040748745203018,50.26639175415039,154.32809448242188,-16346.115234375,53.036128997802734,-43.027549743652344,-587.5213623046875,42.62703323364258,14.364501953125,-0.14810273051261902
1731877054621.0,0.0,0.0,-20.0,0.0,0.0,0.0,0.0,0.0,0.0,0.0,0.0,0.0,0.0,0.0,0.0,0.0,0.0,-18.335601806640625,0.0,0.0,-0.06599102169275284,-68.24507141113281,-26.66891860961914,-16361.4970703125,36.900840759277344,-90.55088806152344,-552.4646606445312,42.52529525756836,14.40034008026123,-0.01595008373260498
1731877054654.0,0.0,0.0,-20.0,0.0,0.0,0.0,0.0,0.0,0.0,0.0,0.0,0.0,0.0,0.0,0.0,0.0,0.0,-18.411224365234375,0.0,0.0,-0.05700638145208359,-96.30896759033203,-165.864013671875,-16434.658203125,5.734543800354004,-22.58294677734375,-635.59033203125,42.524776458740234,14.63049030303955,-0.13257558643817902
1731877054671.0,0.0,0.0,-20.0,0.0,0.0,0.0,0.0,0.0,0.0,0.0,0.0,0.0,0.0,0.0,0.0,0.0,0.0,-18.4765625,0.0,0.0,-0.05250579118728638,286.44342041015625,-12.926133155822754,-16335.15234375,-6.562403202056885,-78.31816101074219,-530.60546875,42.74428176879883,14.213019371032715,-0.5258160829544067
1731877054705.0,0.0,0.0,-20.0,0.0,0.0,0.0,0.0,0.0,0.0,0.0,0.0,0.0,0.0,0.0,0.0,0.0,0.0,-18.59173583984375,0.0,0.0,-0.043461814522743225,7.599520206451416,130.53057861328125,-16327.04296875,-0.5934733152389526,-1.3495354652404785,-350.42803955078125,42.59008026123047,13.809720993041992,0.004211657680571079
1731877054705.0,0.0,0.0,-20.0,0.0,0.0,0.0,0.0,0.0,0.0,0.0,0.0,0.0,0.0,0.0,0.0,0.0,0.0,-18.59173583984375,0.0,0.0,-0.043461814522743225,7.599520206451416,130.53057861328125,-16327.04296875,-0.5934733152389526,-1.3495354652404785,-350.42803955078125,42.59008026123047,13.809720993041992,0.004211657680571079
1731877054755.0,0.0,0.0,-20.0,0.0,0.0,0.0,0.0,0.0,0.0,0.0,0.0,0.0,0.0,0.0,0.0,0.0,0.0,-18.6861572265625,0.0,0.0,-0.0298745259642601,-51.94026184082031,-5.534618377685547,-16254.322265625,58.03703308105469,53.935150146484375,-163.12001037597656,43.1763916015625,14.187975883483887,-0.26501595973968506
1731877054771.0,0.0,0.0,-20.0,0.0,0.0,0.0,0.0,0.0,0.0,0.0,0.0,0.0,0.0,0.0,0.0,0.0,0.0,-18.72039794921875,0.0,0.0,-0.025304950773715973,-41.195316314697266,-44.32304763793945,-16176.8837890625,56.260292053222656,7.506405353546143,-159.32131958007812,42.67971420288086,14.694563865661621,0.10571920871734619
1731877054788.0,0.0,0.0,-20.0,0.0,0.0,0.0,0.0,0.0,0.0,0.0,0.0,0.0,0.0,0.0,0.0,0.0,0.0,-18.7493896484375,0.0,0.0,-0.020761728286743164,-7.748600482940674,207.9580841064453,-16338.01953125,86.86042785644531,68.9271011352539,-284.8349914550781,42.20376968383789,14.68729019165039,0.3970337510108948
1731877054805.0,0.0,0.0,-20.0,0.0,0.0,0.0,0.0,0.0,0.0,0.0,0.0,0.0,0.0,0.0,0.0,0.0,0.0,-18.773193359375,0.0,0.0,-0.016212783753871918,109.15660095214844,58.31354522705078,-16446.517578125,41.28165817260742,41.08409881591797,-135.31808471679688,42.78903579711914,14.94467830657959,0.09988505393266678
1731877054821.0,0.0,0.0,-20.0,0.0,0.0,0.0,0.0,0.0,0.0,0.0,0.0,0.0,0.0,0.0,0.0,0.0,0.0,-18.791748046875,0.0,0.0,-0.011558887548744678,-249.9396209716797,46.7706413269043,-16503.7421875,10.164533615112305,-34.72330093383789,4.608341693878174,43.0159797668457,14.924407958984375,-0.020843008533120155
1731877054871.0,0.0,0.0,-20.0,0.0,0.0,0.0,0.0,0.0,0.0,0.0,0.0,0.0,0.0,0.0,0.0,0.0,0.0,-18.807769775390625,0.0,0.0,0.002182743279263377,17.365768432617188,116.33287811279297,-16626.333984375,100.31481170654297,42.752960205078125,20.967966079711914,42.94236755371094,14.73966121673584,0.2997070848941803
1731877054888.0,0.0,0.0,-20.0,0.0,0.0,0.0,0.0,0.0,0.0,0.0,0.0,0.0,0.0,0.0,0.0,0.0,0.0,-18.805267333984375,0.0,0.0,0.0067414287477731705,30.79198455810547,136.67239379882812,-16463.9140625,-123.19440460205078,42.62723922729492,39.508880615234375,41.9777717590332,14.636052131652832,-0.10470961779356003
1731877054905.0,0.0,0.0,-20.0,0.0,0.0,0.0,0.0,0.0,0.0,0.0,0.0,0.0,0.0,0.0,0.0,0.0,0.0,-18.79754638671875,0.0,0.0,0.011264759115874767,-83.122802734375,223.57077026367188,-16312.6826171875,76.04553985595703,-55.113162994384766,28.632587432861328,43.20561218261719,14.646044731140137,0.6210211515426636
1731877054921.0,0.0,0.0,-20.0,0.0,0.0,0.0,0.0,0.0,0.0,0.0,0.0,0.0,0.0,0.0,0.0,0.0,0.0,-18.784637451171875,0.0,0.0,0.01585197076201439,-23.585765838623047,-56.88276290893555,-16429.36328125,-70.40413665771484,12.679169654846191,111.73563385009766,43.01667785644531,14.778088569641113,-0.08688259869813919
1731877054971.0,0.0,0.0,-20.0,0.0,0.0,0.0,0.0,0.0,0.0,0.0,0.0,0.0,0.0,0.0,0.0,0.0,0.0,-18.737762451171875,0.0,0.0,0.02954854443669319,-205.3433837890625,135.55787658691406,-16195.595703125,-121.721923828125,88.90400695800781,230.99269104003906,42.72160720825195,14.279722213745117,-0.054380305111408234
1731877054988.0,0.0,0.0,-20.0,0.0,0.0,0.0,0.0,0.0,0.0,0.0,0.0,0.0,0.0,0.0,0.0,0.0,0.0,-18.70391845703125,0.0,0.0,0.03407713770866394,-1.4079831838607788,41.35045623779297,-16375.2412109375,-45.03019714355469,-21.39496612548828,172.02963256835938,42.49674987792969,14.267009735107422,0.09220975637435913
1731877055005.0,0.0,0.0,-20.0,0.0,0.0,0.0,0.0,0.0,0.0,0.0,0.0,0.0,0.0,0.0,0.0,0.0,0.0,-18.66485595703125,0.0,0.0,0.03866272419691086,24.78123664855957,-105.70464324951172,-16366.080078125,55.49613571166992,46.38260269165039,224.88555908203125,42.78315353393555,14.95610523223877,-0.277840793132782
1731877055022.0,0.0,0.0,-20.0,0.0,0.0,0.0,0.0,0.0,0.0,0.0,0.0,0.0,0.0,0.0,0.0,0.0,0.0,-18.62054443359375,0.0,0.0,0.043204229325056076,-40.27436447143555,97.30348205566406,-16299.2333984375,-62.7122917175293,32.46450424194336,310.6308288574219,42.41938018798828,13.948894500732422,0.21605516970157623
1731877055055.0,0.0,0.0,-20.0,0.0,0.0,0.0,0.0,0.0,0.0,0.0,0.0,0.0,0.0,0.0,0.0,0.0,0.0,-18.571044921875,0.0,0.0,0.05221680924296379,-111.20055389404297,21.4778995513916,-16405.611328125,-63.31351852416992,118.89795684814453,408.3550720214844,42.96329116821289,14.578656196594238,-0.4425436556339264
1731877055088.0,0.0,0.0,-20.0,0.0,0.0,0.0,0.0,0.0,0.0,0.0,0.0,0.0,0.0,0.0,0.0,0.0,0.0,-18.446258544921875,0.0,0.0,0.061171405017375946,-87.69087982177734,-3.893852710723877,-16489.216796875,-73.91586303710938,16.84716033935547,600.4212646484375,42.53062057495117,14.0411958694458,0.09412908554077148
1731877055105.0,0.0,0.0,-20.0,0.0,0.0,0.0,0.0,0.0,0.0,0.0,0.0,0.0,0.0,0.0,0.0,0.0,0.0,-18.37615966796875,0.0,0.0,0.06564012169837952,170.44845581054688,-118.43025970458984,-16236.2822265625,-35.16781997680664,84.39871215820312,425.8984069824219,42.37065887451172,14.335831642150879,-0.13275489211082458
1731877055105.0,0.0,0.0,-20.0,0.0,0.0,0.0,0.0,0.0,0.0,0.0,0.0,0.0,0.0,0.0,0.0,0.0,0.0,-18.37615966796875,0.0,0.0,0.06564012169837952,170.44845581054688,-118.43025970458984,-16236.2822265625,-35.16781997680664,84.39871215820312,425.8984069824219,42.37065887451172,14.335831642150879,-0.13275489211082458
1731877055155.0,0.0,0.0,-20.0,0.0,0.0,0.0,0.0,0.0,0.0,0.0,0.0,0.0,0.0,0.0,0.0,0.0,0.0,-18.220611572265625,0.0,0.0,0.07886694371700287,175.45669555664062,-49.197872161865234,-16215.8671875,14.922933578491211,-42.133567810058594,722.2754516601562,42.479164123535156,13.849485397338867,0.09129882603883743
1731877055172.0,0.0,0.0,-20.0,0.0,0.0,0.0,0.0,0.0,0.0,0.0,0.0,0.0,0.0,0.0,0.0,0.0,0.0,-18.1302490234375,0.0,0.0,0.08331900835037231,-10.834537506103516,18.160964965820312,-16317.939453125,107.2320785522461,114.07205963134766,624.7529296875,43.13016128540039,13.909944534301758,0.24856004118919373
1731877055205.0,0.0,0.0,-20.0,0.0,0.0,0.0,0.0,0.0,0.0,0.0,0.0,0.0,0.0,0.0,0.0,0.0,0.0,-17.934326171875,0.0,0.0,0.09199199080467224,-42.86179733276367,25.330196380615234,-16138.9736328125,-113.08880615234375,65.30451965332031,656.80810546875,43.130706787109375,13.559050559997559,0.2117309272289276
1731877055205.0,0.0,0.0,-20.0,0.0,0.0,0.0,0.0,0.0,0.0,0.0,0.0,0.0,0.0,0.0,0.0,0.0,0.0,-17.934326171875,0.0,0.0,0.09199199080467224,-42.86179733276367,25.330196380615234,-16138.9736328125,-113.08880615234375,65.30451965332031,656.80810546875,43.130706787109375,13.559050559997559,0.2117309272289276
1731877055222.0,0.0,0.0,-20.0,0.0,0.0,0.0,0.0,0.0,0.0,0.0,0.0,0.0,0.0,0.0,0.0,0.0,0.0,-17.82891845703125,0.0,0.0,0.0963064581155777,-139.4326171875,82.92386627197266,-16395.76171875,-36.21803665161133,-77.03067779541016,709.8110961914062,42.50300598144531,13.253815650939941,-0.04142254590988159
1731877055272.0,0.0,0.0,-20.0,0.0,0.0,0.0,0.0,0.0,0.0,0.0,0.0,0.0,0.0,0.0,0.0,0.0,0.0,-17.598388671875,0.0,0.0,0.10905272513628006,64.76642608642578,43.93723678588867,-16404.880859375,-122.97968292236328,-19.407207489013672,798.0936279296875,43.18248748779297,13.317554473876953,0.4072950482368469
1731877055289.0,0.0,0.0,-20.0,0.0,0.0,0.0,0.0,0.0,0.0,0.0,0.0,0.0,0.0,0.0,0.0,0.0,0.0,-17.47344970703125,0.0,0.0,0.11328306049108505,70.16585540771484,-148.84866333007812,-16383.427734375,-42.01028823852539,1.348461389541626,911.0645141601562,42.8436164855957,13.840141296386719,0.1527688056230545
1731877055305.0,0.0,0.0,-20.0,0.0,0.0,0.0,0.0,0.0,0.0,0.0,0.0,0.0,0.0,0.0,0.0,0.0,0.0,-17.3436279296875,0.0,0.0,0.11742065101861954,-35.67847442626953,-112.37801361083984,-16474.294921875,-4.85883903503418,-5.029909133911133,886.3077392578125,43.20296859741211,13.98323917388916,-0.13816148042678833
1731877055322.0,0.0,0.0,-20.0,0.0,0.0,0.0,0.0,0.0,0.0,0.0,0.0,0.0,0.0,0.0,0.0,0.0,0.0,-17.209075927734375,0.0,0.0,0.1214958056807518,150.08450317382812,-76.27342987060547,-16445.0,81.14603424072266,-48.168575286865234,823.9664306640625,42.759925842285156,13.171370506286621,-0.23189033567905426
1731877055372.0,0.0,0.0,-20.0,0.0,0.0,0.0,0.0,0.0,0.0,0.0,0.0,0.0,0.0,0.0,0.0,0.0,0.0,-16.921234130859375,0.0,0.0,0.13366539776325226,104.41776275634766,-45.9057731628418,-16479.484375,21.65535545349121,51.34580612182617,869.9157104492188,42.99626159667969,13.30372428894043,-0.20977182686328888
1731877055389.0,0.0,0.0,-20.0,0.0,0.0,0.0,0.0,0.0,0.0,0.0,0.0,0.0,0.0,0.0,0.0,0.0,0.0,-16.76806640625,0.0,0.0,0.13765868544578552,76.96051788330078,28.16440773010254,-16519.341796875,99.82743835449219,22.803754806518555,1031.923828125,42.99107360839844,12.729148864746094,-0.282199889421463
1731877055405.0,0.0,0.0,-20.0,0.0,0.0,0.0,0.0,0.0,0.0,0.0,0.0,0.0,0.0,0.0,0.0,0.0,0.0,-16.610321044921875,0.0,0.0,0.14161348342895508,92.94158172607422,-8.035995483398438,-16470.744140625,106.10711669921875,-4.549915313720703,951.3006591796875,43.34423828125,12.74799633026123,0.7333074808120728
1731877055422.0,0.0,0.0,-20.0,0.0,0.0,0.0,0.0,0.0,0.0,0.0,0.0,0.0,0.0,0.0,0.0,0.0,0.0,-16.448028564453125,0.0,0.0,0.14550024271011353,-216.2457733154297,152.79664611816406,-16451.435546875,-12.990153312683105,52.64736557006836,1264.40234375,43.343788146972656,12.603349685668945,-0.11024818569421768
1731877055472.0,0.0,0.0,-20.0,0.0,0.0,0.0,0.0,0.0,0.0,0.0,0.0,0.0,0.0,0.0,0.0,0.0,0.0,-16.105743408203125,0.0,0.0,0.15699820220470428,191.26856994628906,-161.89068603515625,-16433.751953125,-8.642682075500488,-109.54615783691406,1110.1143798828125,43.57197189331055,12.509285926818848,-0.0802084282040596
1731877055489.0,0.0,0.0,-20.0,0.0,0.0,0.0,0.0,0.0,0.0,0.0,0.0,0.0,0.0,0.0,0.0,0.0,0.0,-15.92584228515625,0.0,0.0,0.16071727871894836,136.63046264648438,-52.603824615478516,-16393.890625,12.930865287780762,37.3848991394043,1120.8914794921875,43.243988037109375,12.697122573852539,-0.2873932123184204
1731877055505.0,0.0,0.0,-20.0,0.0,0.0,0.0,0.0,0.0,0.0,0.0,0.0,0.0,0.0,0.0,0.0,0.0,0.0,-15.741668701171875,0.0,0.0,0.16441890597343445,-74.82638549804688,-137.75234985351562,-16345.8291015625,65.28035736083984,48.59394836425781,1191.03662109375,43.00571060180664,12.324538230895996,0.5669334530830383
1731877055522.0,0.0,0.0,-20.0,0.0,0.0,0.0,0.0,0.0,0.0,0.0,0.0,0.0,0.0,0.0,0.0,0.0,0.0,-15.553253173828125,0.0,0.0,0.1680215299129486,-114.937744140625,39.367225646972656,-16490.220703125,53.983760833740234,36.25938415527344,1122.0606689453125,43.61800765991211,12.16667652130127,0.3292390704154968
1731877055572.0,0.0,0.0,-20.0,0.0,0.0,0.0,0.0,0.0,0.0,0.0,0.0,0.0,0.0,0.0,0.0,0.0,0.0,-15.159912109375,0.0,0.0,0.17872998118400574,120.6309585571289,-92.16166687011719,-16412.78515625,26.88636589050293,131.1629180908203,1163.921630859375,43.41645812988281,11.849784851074219,-0.02406740002334118
1731877055589.0,0.0,0.0,-20.0,0.0,0.0,0.0,0.0,0.0,0.0,0.0,0.0,0.0,0.0,0.0,0.0,0.0,0.0,-14.955108642578125,0.0,0.0,0.18216688930988312,-32.12786865234375,8.564069747924805,-16514.01953125,-127.47674560546875,-3.4797911643981934,1380.290771484375,43.52044677734375,11.964605331420898,0.28287166357040405
1731877055605.0,0.0,0.0,-20.0,0.0,0.0,0.0,0.0,0.0,0.0,0.0,0.0,0.0,0.0,0.0,0.0,0.0,0.0,-14.746337890625,0.0,0.0,0.18557831645011902,-20.537281036376953,-40.004058837890625,-16255.521484375,-27.24093246459961,-23.619150161743164,1602.102294921875,43.278045654296875,11.079792022705078,-0.09454204142093658
1731877055622.0,0.0,0.0,-20.0,0.0,0.0,0.0,0.0,0.0,0.0,0.0,0.0,0.0,0.0,0.0,0.0,0.0,0.0,-14.53369140625,0.0,0.0,0.18888916075229645,-10.172468185424805,-58.0111083984375,-16446.744140625,2.7234601974487305,17.712326049804688,1327.213623046875,44.14213180541992,11.422017097473145,-0.1318150758743286
1731877055655.0,0.0,0.0,-20.0,0.0,0.0,0.0,0.0,0.0,0.0,0.0,0.0,0.0,0.0,0.0,0.0,0.0,0.0,-14.317230224609375,0.0,0.0,0.19540320336818695,85.00819396972656,40.319419860839844,-16276.548828125,-7.675353527069092,-18.83700180053711,1379.0989990234375,43.59357452392578,11.030879020690918,0.32166925072669983
1731877055689.0,0.0,0.0,-20.0,0.0,0.0,0.0,0.0,0.0,0.0,0.0,0.0,0.0,0.0,0.0,0.0,0.0,0.0,-13.865753173828125,0.0,0.0,0.20179280638694763,-82.8067855834961,-140.77796936035156,-16375.263671875,12.89896297454834,-51.37643814086914,1546.5413818359375,43.790771484375,10.619410514831543,-0.19516780972480774
1731877055706.0,0.0,0.0,-20.0,0.0,0.0,0.0,0.0,0.0,0.0,0.0,0.0,0.0,0.0,0.0,0.0,0.0,0.0,-13.634490966796875,0.0,0.0,0.20485751330852509,1.616491436958313,-16.595579147338867,-16358.884765625,-54.86082077026367,22.383928298950195,1443.8128662109375,43.17945861816406,10.724453926086426,-0.030425600707530975
1731877055706.0,0.0,0.0,-20.0,0.0,0.0,0.0,0.0,0.0,0.0,0.0,0.0,0.0,0.0,0.0,0.0,0.0,0.0,-13.634490966796875,0.0,0.0,0.20485751330852509,1.616491436958313,-16.595579147338867,-16358.884765625,-54.86082077026367,22.383928298950195,1443.8128662109375,43.17945861816406,10.724453926086426,-0.030425600707530975
1731877055755.0,0.0,0.0,-20.0,0.0,0.0,0.0,0.0,0.0,0.0,0.0,0.0,0.0,0.0,0.0,0.0,0.0,0.0,-13.16156005859375,0.0,0.0,0.21370960772037506,-94.26307678222656,46.37018585205078,-16357.3310546875,20.42552375793457,47.56418991088867,1820.8095703125,43.64628982543945,10.3568696975708,0.044548872858285904
1731877055772.0,0.0,0.0,-20.0,0.0,0.0,0.0,0.0,0.0,0.0,0.0,0.0,0.0,0.0,0.0,0.0,0.0,0.0,-12.916656494140625,0.0,0.0,0.21654357016086578,89.499267578125,136.87091064453125,-16423.15625,-66.55020141601562,-38.716922760009766,1739.3212890625,43.81040573120117,10.236837387084961,-0.09736190736293793
1731877055805.0,0.0,0.0,-20.0,0.0,0.0,0.0,0.0,0.0,0.0,0.0,0.0,0.0,0.0,0.0,0.0,0.0,0.0,-12.4171142578125,0.0,0.0,0.22205142676830292,11.43043041229248,-181.08192443847656,-16297.78125,-16.591625213623047,-6.9529290199279785,1496.8916015625,43.458351135253906,9.614224433898926,0.2413278967142105
1731877055805.0,0.0,0.0,-20.0,0.0,0.0,0.0,0.0,0.0,0.0,0.0,0.0,0.0,0.0,0.0,0.0,0.0,0.0,-12.4171142578125,0.0,0.0,0.22205142676830292,11.43043041229248,-181.08192443847656,-16297.78125,-16.591625213623047,-6.9529290199279785,1496.8916015625,43.458351135253906,9.614224433898926,0.2413278967142105
1731877055822.0,0.0,0.0,-20.0,0.0,0.0,0.0,0.0,0.0,0.0,0.0,0.0,0.0,0.0,0.0,0.0,0.0,0.0,-12.16265869140625,0.0,0.0,0.22474215924739838,32.384666442871094,-55.100337982177734,-16286.2998046875,-47.1751708984375,-9.263943672180176,2007.824462890625,44.186492919921875,9.197609901428223,0.4444430470466614
1731877055872.0,0.0,0.0,-20.0,0.0,0.0,0.0,0.0,0.0,0.0,0.0,0.0,0.0,0.0,0.0,0.0,0.0,0.0,-11.641693115234375,0.0,0.0,0.2323751598596573,175.41893005371094,-48.29180908203125,-16362.6962890625,-4019.75830078125,-109.85470581054688,1778.5738525390625,44.58208084106445,9.524190902709961,0.050647854804992676
1731877055889.0,0.0,0.0,-20.0,0.0,0.0,0.0,0.0,0.0,0.0,0.0,0.0,0.0,0.0,0.0,0.0,0.0,0.0,-11.37542724609375,0.0,0.0,0.2348078340291977,35.47163009643555,-107.34908294677734,-16199.7431640625,-21.327091217041016,-32.734798431396484,2031.0679931640625,44.13124465942383,8.613655090332031,0.0032018532510846853
1731877055906.0,0.0,0.0,-20.0,0.0,0.0,0.0,0.0,0.0,0.0,0.0,0.0,0.0,0.0,0.0,0.0,0.0,0.0,-11.106353759765625,0.0,0.0,0.23712314665317535,-74.53800964355469,-158.1843719482422,-16317.02734375,-33.977481842041016,21.147672653198242,1990.1336669921875,44.19975662231445,9.256946563720703,0.1337125450372696
1731877055922.0,0.0,0.0,-20.0,0.0,0.0,0.0,0.0,0.0,0.0,0.0,0.0,0.0,0.0,0.0,0.0,0.0,0.0,-10.834625244140625,0.0,0.0,0.2393905073404312,123.2818374633789,168.04147338867188,-16412.044921875,-127.6026840209961,8.512276649475098,2215.529541015625,43.87232208251953,8.160446166992188,-0.2625196874141693
1731877055972.0,0.0,0.0,-20.0,0.0,0.0,0.0,0.0,0.0,0.0,0.0,0.0,0.0,0.0,0.0,0.0,0.0,0.0,-10.280975341796875,0.0,0.0,0.2458391636610031,-45.04966735839844,9.967992782592773,-16443.935546875,-73.22547912597656,134.71087646484375,1599.1702880859375,44.184356689453125,7.535679817199707,-0.36808836460113525
1731877055989.0,0.0,0.0,-20.0,0.0,0.0,0.0,0.0,0.0,0.0,0.0,0.0,0.0,0.0,0.0,0.0,0.0,0.0,-9.999267578125,0.0,0.0,0.2478664070367813,-58.067283630371094,31.336509704589844,-16455.38671875,-95.37710571289062,93.7424087524414,1725.4486083984375,44.096981048583984,8.274882316589355,-0.08861208707094193
1731877056006.0,0.0,0.0,-20.0,0.0,0.0,0.0,0.0,0.0,0.0,0.0,0.0,0.0,0.0,0.0,0.0,0.0,0.0,-9.7152099609375,0.0,0.0,0.2498094141483307,-239.48020935058594,102.39607238769531,-16441.58203125,-30.994457244873047,74.12657928466797,1865.078369140625,44.33946228027344,6.916669845581055,0.2220940738916397
1731877056022.0,0.0,0.0,-20.0,0.0,0.0,0.0,0.0,0.0,0.0,0.0,0.0,0.0,0.0,0.0,0.0,0.0,0.0,-9.428955078125,0.0,0.0,0.25166913866996765,128.759033203125,94.38844299316406,-16422.986328125,-49.94707107543945,152.71949768066406,1863.6583251953125,44.54145431518555,7.292431354522705,-0.5418753623962402
1731877056056.0,0.0,0.0,-20.0,0.0,0.0,0.0,0.0,0.0,0.0,0.0,0.0,0.0,0.0,0.0,0.0,0.0,0.0,-9.14056396484375,0.0,0.0,0.25521713495254517,-124.96190643310547,142.46609497070312,-16383.09765625,-51.444637298583984,14.605758666992188,1731.7667236328125,44.59661102294922,7.17456579208374,-0.11134370416402817
1731877056089.0,0.0,0.0,-20.0,0.0,0.0,0.0,0.0,0.0,0.0,0.0,0.0,0.0,0.0,0.0,0.0,0.0,0.0,-8.55377197265625,0.0,0.0,0.2584548890590668,82.15426635742188,60.58956527709961,-16513.576171875,23.851181030273438,53.40852737426758,1890.8577880859375,44.48754119873047,6.547058582305908,-0.0925116017460823
1731877056106.0,0.0,0.0,-20.0,0.0,0.0,0.0,0.0,0.0,0.0,0.0,0.0,0.0,0.0,0.0,0.0,0.0,0.0,-8.257598876953125,0.0,0.0,0.25996097922325134,-31.44969940185547,13.738250732421875,-16416.5625,-145.21156311035156,46.11186599731445,2083.393310546875,44.80931854248047,6.035157203674316,-0.48312970995903015
1731877056123.0,0.0,0.0,-20.0,0.0,0.0,0.0,0.0,0.0,0.0,0.0,0.0,0.0,0.0,0.0,0.0,0.0,0.0,-7.959716796875,0.0,0.0,0.26140567660331726,3.005979061126709,72.95066833496094,-16363.943359375,-42.4803352355957,73.1218032836914,1904.498779296875,44.218868255615234,6.297135353088379,0.09476406872272491
1731877056156.0,0.0,0.0,-20.0,0.0,0.0,0.0,0.0,0.0,0.0,0.0,0.0,0.0,0.0,0.0,0.0,0.0,0.0,-7.66015625,0.0,0.0,0.2640845775604248,-95.80060577392578,-48.115333557128906,-16260.6484375,113.51554107666016,-72.1478271484375,1792.910888671875,44.8515625,6.29759407043457,-0.09147319197654724
1731877056189.0,0.0,0.0,-20.0,0.0,0.0,0.0,0.0,0.0,0.0,0.0,0.0,0.0,0.0,0.0,0.0,0.0,0.0,-7.053558349609375,0.0,0.0,0.2664334177970886,55.68625259399414,-179.951171875,-16450.806640625,-114.40536499023438,86.70466613769531,1809.1484375,44.446937561035156,6.037814617156982,-0.41311749815940857
1731877056206.0,0.0,0.0,-20.0,0.0,0.0,0.0,0.0,0.0,0.0,0.0,0.0,0.0,0.0,0.0,0.0,0.0,0.0,-6.748260498046875,0.0,0.0,0.2675100266933441,11.237089157104492,-25.91214942932129,-16300.240234375,99.38633728027344,-17.003408432006836,2110.077392578125,44.48133087158203,5.000436782836914,0.2851468026638031
1731877056223.0,0.0,0.0,-20.0,0.0,0.0,0.0,0.0,0.0,0.0,0.0,0.0,0.0,0.0,0.0,0.0,0.0,0.0,-6.44171142578125,0.0,0.0,0.2685047686100006,44.235721588134766,117.02938079833984,-16387.3984375,-17.379920959472656,-120.46243286132812,2065.720703125,44.591861724853516,4.779237270355225,-0.2012912482023239
1731877056256.0,0.0,0.0,-20.0,0.0,0.0,0.0,0.0,0.0,0.0,0.0,0.0,0.0,0.0,0.0,0.0,0.0,0.0,-6.134033203125,0.0,0.0,0.2702898681163788,78.67935943603516,-14.5381441116333,-16642.837890625,13.555581092834473,53.17710876464844,2019.5596923828125,45.13990020751953,4.693676471710205,-0.30972132086753845
1731877056289.0,0.0,0.0,-20.0,0.0,0.0,0.0,0.0,0.0,0.0,0.0,0.0,0.0,0.0,0.0,0.0,0.0,0.0,-5.513702392578125,0.0,0.0,0.2717559039592743,135.87197875976562,103.28641510009766,-16429.52734375,-57.167938232421875,-21.01055145263672,2133.63134765625,44.92794418334961,4.325078010559082,-0.29252463579177856
1731877056306.0,0.0,0.0,-20.0,0.0,0.0,0.0,0.0,0.0,0.0,0.0,0.0,0.0,0.0,0.0,0.0,0.0,0.0,-5.2022705078125,0.0,0.0,0.2723809778690338,123.81591033935547,11.436753273010254,-16224.2587890625,73.45631408691406,-11.249921798706055,1847.2835693359375,44.040706634521484,4.295135974884033,-0.6054075956344604
1731877056306.0,0.0,0.0,-20.0,0.0,0.0,0.0,0.0,0.0,0.0,0.0,0.0,0.0,0.0,0.0,0.0,0.0,0.0,-5.2022705078125,0.0,0.0,0.2723809778690338,123.81591033935547,11.436753273010254,-16224.2587890625,73.45631408691406,-11.249921798706055,1847.2835693359375,44.040706634521484,4.295135974884033,-0.6054075956344604
1731877056356.0,0.0,0.0,-20.0,0.0,0.0,0.0,0.0,0.0,0.0,0.0,0.0,0.0,0.0,0.0,0.0,0.0,0.0,-4.577392578125,0.0,0.0,0.27379846572875977,-10.283536911010742,-86.28130340576172,-16599.50390625,57.69599151611328,-2.023465394973755,1812.0841064453125,44.83352279663086,3.313720941543579,0.2565312385559082
1731877056373.0,0.0,0.0,-20.0,0.0,0.0,0.0,0.0,0.0,0.0,0.0,0.0,0.0,0.0,0.0,0.0,0.0,0.0,-4.263641357421875,0.0,0.0,0.2741159200668335,207.92697143554688,-8.168904304504395,-16372.009765625,6.200967788696289,-64.0290298461914,1771.1087646484375,44.46809005737305,3.981952428817749,0.010671726427972317
1731877056406.0,0.0,0.0,-20.0,0.0,0.0,0.0,0.0,0.0,0.0,0.0,0.0,0.0,0.0,0.0,0.0,0.0,0.0,-3.6351318359375,0.0,0.0,0.27452507615089417,134.6024627685547,-25.44516944885254,-16518.658203125,-5.035624027252197,-38.50895690917969,2085.570068359375,44.637149810791016,3.2739510536193848,0.20167410373687744
1731877056406.0,0.0,0.0,-20.0,0.0,0.0,0.0,0.0,0.0,0.0,0.0,0.0,0.0,0.0,0.0,0.0,0.0,0.0,-3.6351318359375,0.0,0.0,0.27452507615089417,134.6024627685547,-25.44516944885254,-16518.658203125,-5.035624027252197,-38.50895690917969,2085.570068359375,44.637149810791016,3.2739510536193848,0.20167410373687744
1731877056457.0,0.0,0.0,-20.0,0.0,0.0,0.0,0.0,0.0,0.0,0.0,0.0,0.0,0.0,0.0,0.0,0.0,0.0,-3.005889892578125,0.0,0.0,0.27456527948379517,127.7234878540039,115.20046997070312,-16368.1162109375,-14.077056884765625,66.23651123046875,2329.7236328125,44.96461868286133,2.6458683013916016,0.06868208944797516
1731877056473.0,0.0,0.0,-20.0,0.0,0.0,0.0,0.0,0.0,0.0,0.0,0.0,0.0,0.0,0.0,0.0,0.0,0.0,-2.691253662109375,0.0,0.0,0.2744273841381073,119.88075256347656,-13.665215492248535,-16348.478515625,-33.03669357299805,-41.67839431762695,2357.50634765625,44.97197723388672,2.3380532264709473,-0.06563630700111389
1731877056506.0,0.0,0.0,-20.0,0.0,0.0,0.0,0.0,0.0,0.0,0.0,0.0,0.0,0.0,0.0,0.0,0.0,0.0,-2.06256103515625,0.0,0.0,0.27392086386680603,200.60604858398438,-66.80516815185547,-16353.2158203125,-140.49758911132812,-40.04315185546875,2303.263671875,44.96799850463867,1.118330955505371,0.005160639062523842
1731877056506.0,0.0,0.0,-20.0,0.0,0.0,0.0,0.0,0.0,0.0,0.0,0.0,0.0,0.0,0.0,0.0,0.0,0.0,-2.06256103515625,0.0,0.0,0.27392086386680603,200.60604858398438,-66.80516815185547,-16353.2158203125,-140.49758911132812,-40.04315185546875,2303.263671875,44.96799850463867,1.118330955505371,0.005160639062523842
1731877056556.0,0.0,0.0,-20.0,0.0,0.0,0.0,0.0,0.0,0.0,0.0,0.0,0.0,0.0,0.0,0.0,0.0,0.0,-1.435211181640625,0.0,0.0,0.27259302139282227,22.64075469970703,-192.57034301757812,-16470.431640625,-6.59160041809082,-51.301788330078125,2219.326171875,45.159812927246094,1.0110836029052734,-0.2785343825817108
1731877056573.0,0.0,0.0,-20.0,0.0,0.0,0.0,0.0,0.0,0.0,0.0,0.0,0.0,0.0,0.0,0.0,0.0,0.0,-1.122833251953125,0.0,0.0,0.271991491317749,53.4727668762207,-31.485342025756836,-16327.1103515625,71.19209289550781,36.30709457397461,2259.113525390625,45.114036560058594,1.354504108428955,-0.03820440173149109
1731877056606.0,0.0,0.0,-20.0,0.0,0.0,0.0,0.0,0.0,0.0,0.0,0.0,0.0,0.0,0.0,0.0,0.0,0.0,-0.500244140625,0.0,0.0,0.2705743610858917,37.283607482910156,-84.37815856933594,-16412.30078125,-17.385446548461914,61.3528938293457,1834.763427734375,45.372230529785156,-0.09152129292488098,0.19154982268810272
1731877056606.0,0.0,0.0,-20.0,0.0,0.0,0.0,0.0,0.0,0.0,0.0,0.0,0.0,0.0,0.0,0.0,0.0,0.0,-0.500244140625,0.0,0.0,0.2705743610858917,37.283607482910156,-84.37815856933594,-16412.30078125,-17.385446548461914,61.3528938293457,1834.763427734375,45.372230529785156,-0.09152129292488098,0.19154982268810272
1731877056657.0,0.0,0.0,-20.0,0.0,0.0,0.0,0.0,0.0,0.0,0.0,0.0,0.0,0.0,0.0,0.0,0.0,0.0,0.11893081665039062,0.0,0.0,0.26788216829299927,-82.47879791259766,-32.71574020385742,-16319.8671875,-14.448974609375,90.80660247802734,2091.9736328125,45.207664489746094,0.08449547737836838,-0.45721107721328735
1731877056673.0,0.0,0.0,-20.0,0.0,0.0,0.0,0.0,0.0,0.0,0.0,0.0,0.0,0.0,0.0,0.0,0.0,0.0,0.4259011745452881,0.0,0.0,0.26684850454330444,22.891834259033203,-28.811771392822266,-16254.12890625,-3.432896137237549,168.55816650390625,1680.048828125,45.09194564819336,-0.6622599363327026,0.013632003217935562
1731877056706.0,0.0,0.0,-20.0,0.0,0.0,0.0,0.0,0.0,0.0,0.0,0.0,0.0,0.0,0.0,0.0,0.0,0.0,1.0361762046813965,0.0,0.0,0.2645281255245209,-9.014667510986328,36.10219955444336,-16324.9814453125,37.27005386352539,-204.78598022460938,1548.024169921875,44.79387283325195,-0.5767584443092346,0.2510635554790497
1731877056706.0,0.0,0.0,-20.0,0.0,0.0,0.0,0.0,0.0,0.0,0.0,0.0,0.0,0.0,0.0,0.0,0.0,0.0,1.0361762046813965,0.0,0.0,0.2645281255245209,-9.014667510986328,36.10219955444336,-16324.9814453125,37.27005386352539,-204.78598022460938,1548.024169921875,44.79387283325195,-0.5767584443092346,0.2510635554790497
1731877056723.0,0.0,0.0,-20.0,0.0,0.0,0.0,0.0,0.0,0.0,0.0,0.0,0.0,0.0,0.0,0.0,0.0,0.0,1.3393032550811768,0.0,0.0,0.2632758617401123,-117.2116928100586,-26.540651321411133,-16438.2109375,-99.23657989501953,-64.11416625976562,1822.498291015625,45.1617317199707,-0.1900118589401245,-0.2465134859085083
1731877056773.0,0.0,0.0,-20.0,0.0,0.0,0.0,0.0,0.0,0.0,0.0,0.0,0.0,0.0,0.0,0.0,0.0,0.0,1.9395233392715454,0.0,0.0,0.25903594493865967,-81.30264282226562,140.8861083984375,-16405.046875,-12.654860496520996,73.44985961914062,1942.8251953125,44.88942337036133,-1.478325605392456,0.4374547004699707
1731877056790.0,0.0,0.0,-20.0,0.0,0.0,0.0,0.0,0.0,0.0,0.0,0.0,0.0,0.0,0.0,0.0,0.0,0.0,2.236356496810913,0.0,0.0,0.25748565793037415,104.10890197753906,161.00299072265625,-16404.6328125,-41.95534896850586,-82.21479797363281,2021.689208984375,44.955631256103516,-1.9774044752120972,-0.3113918602466583
1731877056806.0,0.0,0.0,-20.0,0.0,0.0,0.0,0.0,0.0,0.0,0.0,0.0,0.0,0.0,0.0,0.0,0.0,0.0,2.5314135551452637,0.0,0.0,0.25584009289741516,43.909934997558594,135.9068603515625,-16329.5546875,103.14697265625,19.793378829956055,1801.8173828125,45.30223083496094,-1.7324999570846558,0.02187633141875267
1731877056823.0,0.0,0.0,-20.0,0.0,0.0,0.0,0.0,0.0,0.0,0.0,0.0,0.0,0.0,0.0,0.0,0.0,0.0,2.8245842456817627,0.0,0.0,0.254172682762146,51.68430709838867,82.10315704345703,-16383.23828125,-10.923526763916016,50.44099044799805,2098.27490234375,45.19985580444336,-2.033400535583496,0.33189356327056885
1731877056856.0,0.0,0.0,-20.0,0.0,0.0,0.0,0.0,0.0,0.0,0.0,0.0,0.0,0.0,0.0,0.0,0.0,0.0,3.1158447265625,0.0,0.0,0.2505658268928528,-12.267902374267578,-9.125073432922363,-16363.671875,-91.42637634277344,-25.443775177001953,1858.89453125,44.6474494934082,-2.0782389640808105,-0.1342766135931015
1731877056890.0,0.0,0.0,-20.0,0.0,0.0,0.0,0.0,0.0,0.0,0.0,0.0,0.0,0.0,0.0,0.0,0.0,0.0,3.6878888607025146,0.0,0.0,0.24663646519184113,-39.453861236572266,13.717459678649902,-16473.861328125,15.216958999633789,117.74976348876953,2025.9268798828125,44.670894622802734,-2.8997976779937744,0.3445119559764862
1731877056906.0,0.0,0.0,-20.0,0.0,0.0,0.0,0.0,0.0,0.0,0.0,0.0,0.0,0.0,0.0,0.0,0.0,0.0,3.970513343811035,0.0,0.0,0.24461227655410767,-49.148860931396484,-230.5836944580078,-16456.615234375,106.42604064941406,11.472591400146484,1922.5899658203125,44.86321258544922,-3.3662993907928467,0.21448998153209686
1731877056923.0,0.0,0.0,-20.0,0.0,0.0,0.0,0.0,0.0,0.0,0.0,0.0,0.0,0.0,0.0,0.0,0.0,0.0,4.250818252563477,0.0,0.0,0.24249015748500824,-2.9999074935913086,38.4649772644043,-16383.7333984375,64.88186645507812,-107.92244720458984,1667.16943359375,45.29243087768555,-3.275954008102417,-0.193522110581398
1731877056956.0,0.0,0.0,-20.0,0.0,0.0,0.0,0.0,0.0,0.0,0.0,0.0,0.0,0.0,0.0,0.0,0.0,0.0,4.528690814971924,0.0,0.0,0.2380598485469818,-69.05960083007812,-1.7079706192016602,-16436.25,-28.71297264099121,-37.493690490722656,1924.1104736328125,44.9953727722168,-3.8235058784484863,-0.4611895978450775
1731877056990.0,0.0,0.0,-20.0,0.0,0.0,0.0,0.0,0.0,0.0,0.0,0.0,0.0,0.0,0.0,0.0,0.0,0.0,5.071601867675781,0.0,0.0,0.23332980275154114,36.71355056762695,-108.18733215332031,-16297.080078125,-52.6460075378418,-41.59547805786133,1702.0595703125,45.401634216308594,-3.4843454360961914,-0.4639674425125122
1731877057007.0,0.0,0.0,-20.0,0.0,0.0,0.0,0.0,0.0,0.0,0.0,0.0,0.0,0.0,0.0,0.0,0.0,0.0,5.338978290557861,0.0,0.0,0.2308930605649948,-83.53726959228516,-26.00489044189453,-16341.9052734375,29.022300720214844,34.983612060546875,2051.028564453125,44.95584487915039,-4.427619457244873,-0.22828219830989838
1731877057007.0,0.0,0.0,-20.0,0.0,0.0,0.0,0.0,0.0,0.0,0.0,0.0,0.0,0.0,0.0,0.0,0.0,0.0,5.338978290557861,0.0,0.0,0.2308930605649948,-83.53726959228516,-26.00489044189453,-16341.9052734375,29.022300720214844,34.983612060546875,2051.028564453125,44.95584487915039,-4.427619457244873,-0.22828219830989838
1731877057057.0,0.0,0.0,-20.0,0.0,0.0,0.0,0.0,0.0,0.0,0.0,0.0,0.0,0.0,0.0,0.0,0.0,0.0,5.865259647369385,0.0,0.0,0.2231452465057373,85.05349731445312,45.670799255371094,-16324.1943359375,27.428321838378906,31.73551368713379,1726.7918701171875,44.963409423828125,-4.393563270568848,-0.6909461617469788
1731877057073.0,0.0,0.0,-20.0,0.0,0.0,0.0,0.0,0.0,0.0,0.0,0.0,0.0,0.0,0.0,0.0,0.0,0.0,6.120965957641602,0.0,0.0,0.2204568237066269,-7.213576793670654,-83.79584503173828,-16386.46875,66.6070327758789,63.55012893676758,1701.2552490234375,44.38227081298828,-5.147361755371094,-0.4071422517299652
1731877057107.0,0.0,0.0,-20.0,0.0,0.0,0.0,0.0,0.0,0.0,0.0,0.0,0.0,0.0,0.0,0.0,0.0,0.0,6.623018264770508,0.0,0.0,0.21485674381256104,172.79005432128906,-199.25335693359375,-16168.93359375,7.830179214477539,30.385774612426758,1809.35986328125,44.82482147216797,-5.457825660705566,-0.02137496881186962
1731877057107.0,0.0,0.0,-20.0,0.0,0.0,0.0,0.0,0.0,0.0,0.0,0.0,0.0,0.0,0.0,0.0,0.0,0.0,6.623018264770508,0.0,0.0,0.21485674381256104,172.79005432128906,-199.25335693359375,-16168.93359375,7.830179214477539,30.385774612426758,1809.35986328125,44.82482147216797,-5.457825660705566,-0.02137496881186962
1731877057157.0,0.0,0.0,-20.0,0.0,0.0,0.0,0.0,0.0,0.0,0.0,0.0,0.0,0.0,0.0,0.0,0.0,0.0,7.11214542388916,0.0,0.0,0.20603014528751373,75.91854095458984,-89.10197448730469,-16325.537109375,27.525135040283203,28.215620040893555,1693.036865234375,44.42844772338867,-5.97534704208374,0.14923009276390076
1731877057174.0,0.0,0.0,-20.0,0.0,0.0,0.0,0.0,0.0,0.0,0.0,0.0,0.0,0.0,0.0,0.0,0.0,0.0,7.348238468170166,0.0,0.0,0.20294204354286194,-0.8874764442443848,-41.547264099121094,-16393.57421875,118.61212921142578,34.562835693359375,1524.4559326171875,44.750064849853516,-5.612335681915283,-0.2854771316051483
1731877057207.0,0.0,0.0,-20.0,0.0,0.0,0.0,0.0,0.0,0.0,0.0,0.0,0.0,0.0,0.0,0.0,0.0,0.0,7.809796333312988,0.0,0.0,0.19661737978458405,79.46836853027344,-76.12786102294922,-16207.5478515625,-39.030033111572266,-83.63642883300781,1454.8944091796875,44.71071243286133,-5.675947666168213,-0.11042090505361557
1731877057207.0,0.0,0.0,-20.0,0.0,0.0,0.0,0.0,0.0,0.0,0.0,0.0,0.0,0.0,0.0,0.0,0.0,0.0,7.809796333312988,0.0,0.0,0.19661737978458405,79.46836853027344,-76.12786102294922,-16207.5478515625,-39.030033111572266,-83.63642883300781,1454.8944091796875,44.71071243286133,-5.675947666168213,-0.11042090505361557
1731877057257.0,0.0,0.0,-20.0,0.0,0.0,0.0,0.0,0.0,0.0,0.0,0.0,0.0,0.0,0.0,0.0,0.0,0.0,8.256813049316406,0.0,0.0,0.1868278682231903,157.30206298828125,-136.92295837402344,-16419.271484375,-74.88522338867188,57.382545471191406,1381.84326171875,44.02015686035156,-6.317541599273682,0.6847667694091797
1731877057274.0,0.0,0.0,-20.0,0.0,0.0,0.0,0.0,0.0,0.0,0.0,0.0,0.0,0.0,0.0,0.0,0.0,0.0,8.470901489257812,0.0,0.0,0.18346050381660461,-107.70303344726562,-1.0201947689056396,-16411.56640625,9.370500564575195,-55.116416931152344,1468.3006591796875,44.15431213378906,-6.592349052429199,0.2139139324426651
1731877057290.0,0.0,0.0,-20.0,0.0,0.0,0.0,0.0,0.0,0.0,0.0,0.0,0.0,0.0,0.0,0.0,0.0,0.0,8.681132316589355,0.0,0.0,0.1799919605255127,30.417722702026367,2.2425692081451416,-16358.224609375,2.7004921436309814,-20.551395416259766,1539.4378662109375,44.508018493652344,-6.843664646148682,-0.36582520604133606
1731877057307.0,0.0,0.0,-20.0,0.0,0.0,0.0,0.0,0.0,0.0,0.0,0.0,0.0,0.0,0.0,0.0,0.0,0.0,8.887386322021484,0.0,0.0,0.17652367055416107,-206.1128387451172,32.4936637878418,-16219.623046875,-30.98467445373535,-9.318564414978027,1284.687744140625,44.31907272338867,-6.9299798011779785,0.46777915954589844
1731877057324.0,0.0,0.0,-20.0,0.0,0.0,0.0,0.0,0.0,0.0,0.0,0.0,0.0,0.0,0.0,0.0,0.0,0.0,9.089669227600098,0.0,0.0,0.17298072576522827,10.856191635131836,-126.38978576660156,-16393.712890625,110.97514343261719,140.30514526367188,1281.2835693359375,44.48318862915039,-6.706845283508301,-0.18296658992767334
1731877057374.0,0.0,0.0,-20.0,0.0,0.0,0.0,0.0,0.0,0.0,0.0,0.0,0.0,0.0,0.0,0.0,0.0,0.0,9.47785758972168,0.0,0.0,0.16206559538841248,156.21539306640625,-68.01360321044922,-16136.5048828125,108.3181381225586,11.259923934936523,1050.9217529296875,44.59537887573242,-7.793020725250244,0.5428863167762756
1731877057391.0,0.0,0.0,-20.0,0.0,0.0,0.0,0.0,0.0,0.0,0.0,0.0,0.0,0.0,0.0,0.0,0.0,0.0,9.66357135772705,0.0,0.0,0.15833520889282227,-204.8036651611328,25.170196533203125,-16543.048828125,-57.09396743774414,-67.88387298583984,1373.710205078125,44.51791000366211,-7.603606700897217,-0.5739213228225708
1731877057424.0,0.0,0.0,-20.0,0.0,0.0,0.0,0.0,0.0,0.0,0.0,0.0,0.0,0.0,0.0,0.0,0.0,0.0,10.022153854370117,0.0,0.0,0.15079867839813232,-48.34451675415039,90.5859146118164,-16374.7421875,-34.87385559082031,-36.03683853149414,1053.3359375,44.72636413574219,-7.776922225952148,0.24002262949943542
1731877057424.0,0.0,0.0,-20.0,0.0,0.0,0.0,0.0,0.0,0.0,0.0,0.0,0.0,0.0,0.0,0.0,0.0,0.0,10.022153854370117,0.0,0.0,0.15079867839813232,-48.34451675415039,90.5859146118164,-16374.7421875,-34.87385559082031,-36.03683853149414,1053.3359375,44.72636413574219,-7.776922225952148,0.24002262949943542
1731877057474.0,0.0,0.0,-20.0,0.0,0.0,0.0,0.0,0.0,0.0,0.0,0.0,0.0,0.0,0.0,0.0,0.0,0.0,10.363336563110352,0.0,0.0,0.13915593922138214,76.02252197265625,-103.31214904785156,-16515.330078125,42.98141098022461,36.47977066040039,1116.6529541015625,44.783233642578125,-8.278958320617676,0.06084826961159706
1731877057490.0,0.0,0.0,-20.0,0.0,0.0,0.0,0.0,0.0,0.0,0.0,0.0,0.0,0.0,0.0,0.0,0.0,0.0,10.522797584533691,0.0,0.0,0.13523541390895844,-113.39865112304688,23.6214599609375,-16270.7314453125,-39.71332931518555,50.54254913330078,922.8853149414062,44.1804313659668,-8.956388473510742,-0.11371880024671555
1731877057507.0,0.0,0.0,-20.0,0.0,0.0,0.0,0.0,0.0,0.0,0.0,0.0,0.0,0.0,0.0,0.0,0.0,0.0,10.677765846252441,0.0,0.0,0.13124871253967285,82.97396850585938,61.24427795410156,-16446.130859375,37.069297790527344,53.05289840698242,1030.7998046875,44.233516693115234,-8.080204010009766,0.07033168524503708
1731877057524.0,0.0,0.0,-20.0,0.0,0.0,0.0,0.0,0.0,0.0,0.0,0.0,0.0,0.0,0.0,0.0,0.0,0.0,10.828166007995605,0.0,0.0,0.12719611823558807,-57.61863327026367,-30.24125099182129,-16500.560546875,8.631272315979004,43.29918670654297,1189.4813232421875,43.958641052246094,-8.42592716217041,-0.7968798279762268
1731877057574.0,0.0,0.0,-20.0,0.0,0.0,0.0,0.0,0.0,0.0,0.0,0.0,0.0,0.0,0.0,0.0,0.0,0.0,11.110199928283691,0.0,0.0,0.11479903012514114,37.08351516723633,-101.23838806152344,-16407.892578125,58.743492126464844,-6.307657241821289,719.2311401367188,44.26984405517578,-9.32674503326416,0.022057192400097847
1731877057590.0,0.0,0.0,-20.0,0.0,0.0,0.0,0.0,0.0,0.0,0.0,0.0,0.0,0.0,0.0,0.0,0.0,0.0,11.241748809814453,0.0,0.0,0.11067219078540802,111.12963104248047,-158.1805419921875,-16598.892578125,-1.8240898847579956,38.9995231628418,806.0631103515625,43.9677619934082,-8.581958770751953,-0.17706257104873657
1731877057607.0,0.0,0.0,-20.0,0.0,0.0,0.0,0.0,0.0,0.0,0.0,0.0,0.0,0.0,0.0,0.0,0.0,0.0,11.368569374084473,0.0,0.0,0.10639166831970215,51.14597702026367,88.6033706665039,-16338.3720703125,-46.8740234375,-17.80141830444336,790.4287109375,44.64466094970703,-9.114702224731445,-0.17705021798610687
1731877057624.0,0.0,0.0,-20.0,0.0,0.0,0.0,0.0,0.0,0.0,0.0,0.0,0.0,0.0,0.0,0.0,0.0,0.0,11.490486145019531,0.0,0.0,0.10214276611804962,-12.363948822021484,-145.55838012695312,-16237.951171875,53.383270263671875,63.99012756347656,815.650634765625,44.16178894042969,-8.940587043762207,-0.02496357262134552
1731877057641.0,0.0,0.0,-20.0,0.0,0.0,0.0,0.0,0.0,0.0,0.0,0.0,0.0,0.0,0.0,0.0,0.0,0.0,11.607532501220703,0.0,0.0,0.09792794287204742,-162.10951232910156,-1.6303074359893799,-16260.3544921875,-20.228952407836914,-27.32198143005371,769.8807983398438,43.922210693359375,-9.323806762695312,0.2564365267753601
1731877057691.0,0.0,0.0,-20.0,0.0,0.0,0.0,0.0,0.0,0.0,0.0,0.0,0.0,0.0,0.0,0.0,0.0,0.0,11.822108268737793,0.0,0.0,0.08493724465370178,-21.02743148803711,2.7077040672302246,-16287.7373046875,-23.872737884521484,53.40607833862305,655.493896484375,43.935523986816406,-9.416449546813965,-0.3191550374031067
1731877057708.0,0.0,0.0,-20.0,0.0,0.0,0.0,0.0,0.0,0.0,0.0,0.0,0.0,0.0,0.0,0.0,0.0,0.0,11.919440269470215,0.0,0.0,0.08052583783864975,141.26123046875,156.9729766845703,-16225.576171875,13.634929656982422,-22.238079071044922,670.0186767578125,44.34196472167969,-10.078349113464355,0.01831023208796978
1731877057724.0,0.0,0.0,-20.0,0.0,0.0,0.0,0.0,0.0,0.0,0.0,0.0,0.0,0.0,0.0,0.0,0.0,0.0,12.011716842651367,0.0,0.0,0.07618820667266846,-194.49356079101562,-56.969547271728516,-16357.1064453125,25.748043060302734,-82.14700317382812,471.39971923828125,43.58076477050781,-9.38239860534668,-0.0835147500038147
1731877057741.0,0.0,0.0,-20.0,0.0,0.0,0.0,0.0,0.0,0.0,0.0,0.0,0.0,0.0,0.0,0.0,0.0,0.0,12.099021911621094,0.0,0.0,0.07173280417919159,104.94510650634766,52.14380645751953,-16496.0625,77.62149810791016,-57.782291412353516,556.54150390625,44.087860107421875,-9.512145042419434,0.21121549606323242
1731877057791.0,0.0,0.0,-20.0,0.0,0.0,0.0,0.0,0.0,0.0,0.0,0.0,0.0,0.0,0.0,0.0,0.0,0.0,12.253292083740234,0.0,0.0,0.058446116745471954,-93.61353302001953,63.697872161865234,-16389.1015625,4.0731096267700195,-21.0640869140625,376.8953857421875,44.236202239990234,-9.526022911071777,-0.055373240262269974
1731877057808.0,0.0,0.0,-20.0,0.0,0.0,0.0,0.0,0.0,0.0,0.0,0.0,0.0,0.0,0.0,0.0,0.0,0.0,12.320265769958496,0.0,0.0,0.053884755820035934,83.1360855102539,-36.21927261352539,-16525.869140625,47.82624435424805,60.62480163574219,419.9825744628906,44.30522155761719,-9.173352241516113,0.45286911725997925
1731877057824.0,0.0,0.0,-20.0,0.0,0.0,0.0,0.0,0.0,0.0,0.0,0.0,0.0,0.0,0.0,0.0,0.0,0.0,12.382012367248535,0.0,0.0,0.04943979158997536,-74.431640625,82.2466812133789,-16602.25390625,5.8250956535339355,128.29098510742188,223.06939697265625,44.03260803222656,-8.820808410644531,-0.17103222012519836
1731877057841.0,0.0,0.0,-20.0,0.0,0.0,0.0,0.0,0.0,0.0,0.0,0.0,0.0,0.0,0.0,0.0,0.0,0.0,12.438667297363281,0.0,0.0,0.04488218575716019,-23.587398529052734,107.3389663696289,-16464.744140625,13.155487060546875,37.76877975463867,310.294677734375,43.513282775878906,-9.388497352600098,-0.06490100920200348
1731877057874.0,0.0,0.0,-20.0,0.0,0.0,0.0,0.0,0.0,0.0,0.0,0.0,0.0,0.0,0.0,0.0,0.0,0.0,12.490097999572754,0.0,0.0,0.03586301580071449,-155.37631225585938,-102.92797088623047,-16351.8095703125,10.797907829284668,30.770761489868164,255.906494140625,43.72738265991211,-10.318772315979004,-0.2141946405172348
1731877057908.0,0.0,0.0,-20.0,0.0,0.0,0.0,0.0,0.0,0.0,0.0,0.0,0.0,0.0,0.0,0.0,0.0,0.0,12.567105293273926,0.0,0.0,0.02680431306362152,190.83236694335938,28.975879669189453,-16168.783203125,63.06818771362305,22.25438117980957,195.65487670898438,43.49692153930664,-9.662985801696777,0.3672213852405548
1731877057908.0,0.0,0.0,-20.0,0.0,0.0,0.0,0.0,0.0,0.0,0.0,0.0,0.0,0.0,0.0,0.0,0.0,0.0,12.567105293273926,0.0,0.0,0.02680431306362152,190.83236694335938,28.975879669189453,-16168.783203125,63.06818771362305,22.25438117980957,195.65487670898438,43.49692153930664,-9.662985801696777,0.3672213852405548
1731877057957.0,0.0,0.0,-20.0,0.0,0.0,0.0,0.0,0.0,0.0,0.0,0.0,0.0,0.0,0.0,0.0,0.0,0.0,12.623332977294922,0.0,0.0,0.013163987547159195,91.69673919677734,-29.192928314208984,-16254.99609375,29.793174743652344,-49.7105712890625,168.41815185546875,44.096561431884766,-9.800274848937988,0.12045493721961975
1731877057974.0,0.0,0.0,-20.0,0.0,0.0,0.0,0.0,0.0,0.0,0.0,0.0,0.0,0.0,0.0,0.0,0.0,0.0,12.638416290283203,0.0,0.0,0.008541268296539783,-169.41445922851562,-48.82944869995117,-16312.5537109375,11.790700912475586,71.79850006103516,-19.910114288330078,44.0953369140625,-9.444547653198242,-0.07569652795791626
1731877057991.0,0.0,0.0,-20.0,0.0,0.0,0.0,0.0,0.0,0.0,0.0,0.0,0.0,0.0,0.0,0.0,0.0,0.0,12.64820384979248,0.0,0.0,0.003916123416274786,-25.517953872680664,123.29629516601562,-16485.703125,57.879661560058594,-103.11337280273438,18.679121017456055,44.20347213745117,-10.176523208618164,0.5873228907585144
1731877058024.0,0.0,0.0,-20.0,0.0,0.0,0.0,0.0,0.0,0.0,0.0,0.0,0.0,0.0,0.0,0.0,0.0,0.0,12.65195369720459,0.0,0.0,-0.005202111788094044,103.21357727050781,38.118408203125,-16314.6845703125,-28.284528732299805,-2.591482162475586,-74.76010131835938,44.41571044921875,-9.943662643432617,-0.19922704994678497
1731877058024.0,0.0,0.0,-20.0,0.0,0.0,0.0,0.0,0.0,0.0,0.0,0.0,0.0,0.0,0.0,0.0,0.0,0.0,12.65195369720459,0.0,0.0,-0.005202111788094044,103.21357727050781,38.118408203125,-16314.6845703125,-28.284528732299805,-2.591482162475586,-74.76010131835938,44.41571044921875,-9.943662643432617,-0.19922704994678497
1731877058041.0,0.0,0.0,-20.0,0.0,0.0,0.0,0.0,0.0,0.0,0.0,0.0,0.0,0.0,0.0,0.0,0.0,0.0,12.645992279052734,0.0,0.0,-0.009759707376360893,35.78248977661133,-105.95405578613281,-16531.462890625,21.549013137817383,20.036821365356445,-62.18814468383789,43.74947738647461,-10.011661529541016,0.41050106287002563
1731877058091.0,0.0,0.0,-20.0,0.0,0.0,0.0,0.0,0.0,0.0,0.0,0.0,0.0,0.0,0.0,0.0,0.0,0.0,12.613076210021973,0.0,0.0,-0.02347813919186592,89.78702545166016,64.78396606445312,-16339.38671875,63.660037994384766,-43.86347961425781,-86.22814178466797,43.87022399902344,-9.588970184326172,0.6597073078155518
1731877058107.0,0.0,0.0,-20.0,0.0,0.0,0.0,0.0,0.0,0.0,0.0,0.0,0.0,0.0,0.0,0.0,0.0,0.0,12.58617115020752,0.0,0.0,-0.02798399329185486,94.2093734741211,63.762901306152344,-16436.90625,-193.3647003173828,35.15066146850586,-259.1387939453125,44.168880462646484,-9.812690734863281,0.41962531208992004
1731877058124.0,0.0,0.0,-20.0,0.0,0.0,0.0,0.0,0.0,0.0,0.0,0.0,0.0,0.0,0.0,0.0,0.0,0.0,12.55410385131836,0.0,0.0,-0.032548826187849045,51.304176330566406,122.99406433105469,-16333.4052734375,-25.533203125,-60.36524200439453,-188.62139892578125,43.91778564453125,-10.217657089233398,0.2696497142314911
1731877058141.0,0.0,0.0,-20.0,0.0,0.0,0.0,0.0,0.0,0.0,0.0,0.0,0.0,0.0,0.0,0.0,0.0,0.0,12.516805648803711,0.0,0.0,-0.03710455447435379,119.49674987792969,34.08928298950195,-16322.4169921875,108.17960357666016,-48.84804916381836,-192.0431671142578,44.12705993652344,-9.510801315307617,0.12580080330371857
1731877058174.0,0.0,0.0,-20.0,0.0,0.0,0.0,0.0,0.0,0.0,0.0,0.0,0.0,0.0,0.0,0.0,0.0,0.0,12.474287986755371,0.0,0.0,-0.04618361219763756,52.39723205566406,-127.9665298461914,-16264.576171875,-79.65644073486328,95.4548110961914,-286.2695007324219,43.590354919433594,-9.632452964782715,-0.3539590835571289
1731877058208.0,0.0,0.0,-20.0,0.0,0.0,0.0,0.0,0.0,0.0,0.0,0.0,0.0,0.0,0.0,0.0,0.0,0.0,12.3632230758667,0.0,0.0,-0.0552438460290432,282.3109436035156,151.5673065185547,-16417.041015625,-107.1958999633789,-78.17752075195312,-406.054931640625,44.1785888671875,-9.304624557495117,-0.3705003559589386
1731877058224.0,0.0,0.0,-20.0,0.0,0.0,0.0,0.0,0.0,0.0,0.0,0.0,0.0,0.0,0.0,0.0,0.0,0.0,12.299918174743652,0.0,0.0,-0.05970217287540436,68.54359436035156,-71.84893798828125,-16330.3974609375,-95.1766586303711,2.2608120441436768,-465.309326171875,44.221954345703125,-9.734199523925781,-0.3738393187522888
1731877058224.0,0.0,0.0,-20.0,0.0,0.0,0.0,0.0,0.0,0.0,0.0,0.0,0.0,0.0,0.0,0.0,0.0,0.0,12.299918174743652,0.0,0.0,-0.05970217287540436,68.54359436035156,-71.84893798828125,-16330.3974609375,-95.1766586303711,2.2608120441436768,-465.309326171875,44.221954345703125,-9.734199523925781,-0.3738393187522888
1731877058274.0,0.0,0.0,-20.0,0.0,0.0,0.0,0.0,0.0,0.0,0.0,0.0,0.0,0.0,0.0,0.0,0.0,0.0,12.158036231994629,0.0,0.0,-0.07297353446483612,52.01150894165039,-99.12798309326172,-16357.5361328125,-28.111980438232422,0.8659836649894714,-645.2149658203125,43.91511154174805,-9.275961875915527,-0.1522626280784607
1731877058291.0,0.0,0.0,-20.0,0.0,0.0,0.0,0.0,0.0,0.0,0.0,0.0,0.0,0.0,0.0,0.0,0.0,0.0,12.074414253234863,0.0,0.0,-0.0773908793926239,-135.89761352539062,-86.8527603149414,-16468.7421875,52.72627639770508,110.92205810546875,-567.3570556640625,44.10405349731445,-9.447619438171387,0.01799699105322361
1731877058324.0,0.0,0.0,-20.0,0.0,0.0,0.0,0.0,0.0,0.0,0.0,0.0,0.0,0.0,0.0,0.0,0.0,0.0,11.891974449157715,0.0,0.0,-0.08615942299365997,81.66373443603516,201.56300354003906,-16596.498046875,55.39459991455078,-52.78450012207031,-660.1494750976562,43.711463928222656,-9.340744018554688,0.08821190148591995
1731877058324.0,0.0,0.0,-20.0,0.0,0.0,0.0,0.0,0.0,0.0,0.0,0.0,0.0,0.0,0.0,0.0,0.0,0.0,11.891974449157715,0.0,0.0,-0.08615942299365997,81.66373443603516,201.56300354003906,-16596.498046875,55.39459991455078,-52.78450012207031,-660.1494750976562,43.711463928222656,-9.340744018554688,0.08821190148591995
1731877058341.0,0.0,0.0,-20.0,0.0,0.0,0.0,0.0,0.0,0.0,0.0,0.0,0.0,0.0,0.0,0.0,0.0,0.0,11.793243408203125,0.0,0.0,-0.09050816297531128,-123.42425537109375,155.689208984375,-16538.169921875,103.8663101196289,-66.08587646484375,-671.7297973632812,44.137542724609375,-9.88992691040039,-0.1527652144432068
1731877058391.0,0.0,0.0,-20.0,0.0,0.0,0.0,0.0,0.0,0.0,0.0,0.0,0.0,0.0,0.0,0.0,0.0,0.0,11.575970649719238,0.0,0.0,-0.10333554446697235,29.462648391723633,-18.964303970336914,-16474.75390625,48.08015441894531,-11.895377159118652,-656.863525390625,43.792755126953125,-8.760540008544922,-0.2778850793838501
1731877058408.0,0.0,0.0,-20.0,0.0,0.0,0.0,0.0,0.0,0.0,0.0,0.0,0.0,0.0,0.0,0.0,0.0,0.0,11.457557678222656,0.0,0.0,-0.10760708153247833,20.19777488708496,-141.0354461669922,-16405.15234375,-10.66917896270752,6.672324180603027,-820.2369995117188,44.34565734863281,-8.692047119140625,0.4934843182563782
1731877058424.0,0.0,0.0,-20.0,0.0,0.0,0.0,0.0,0.0,0.0,0.0,0.0,0.0,0.0,0.0,0.0,0.0,0.0,11.334250450134277,0.0,0.0,-0.11175621300935745,10.4279146194458,16.472681045532227,-16294.859375,9.514312744140625,13.154321670532227,-853.7457275390625,44.610355377197266,-8.786978721618652,-0.12778104841709137
1731877058441.0,0.0,0.0,-20.0,0.0,0.0,0.0,0.0,0.0,0.0,0.0,0.0,0.0,0.0,0.0,0.0,0.0,0.0,11.20618724822998,0.0,0.0,-0.11596617847681046,-59.894004821777344,-1.837629795074463,-16229.5478515625,115.36328125,112.11426544189453,-1005.310791015625,43.5799560546875,-8.677511215209961,-0.37037891149520874
1731877058491.0,0.0,0.0,-20.0,0.0,0.0,0.0,0.0,0.0,0.0,0.0,0.0,0.0,0.0,0.0,0.0,0.0,0.0,10.931014060974121,0.0,0.0,-0.12821604311466217,72.28897857666016,-82.50831604003906,-16322.3369140625,-36.19871520996094,-42.31663131713867,-936.9993286132812,43.9748649597168,-8.561104774475098,0.3073539137840271
1731877058508.0,0.0,0.0,-20.0,0.0,0.0,0.0,0.0,0.0,0.0,0.0,0.0,0.0,0.0,0.0,0.0,0.0,0.0,10.784089088439941,0.0,0.0,-0.13231828808784485,-21.025739669799805,-64.898681640625,-16317.96875,82.73406219482422,-85.31578826904297,-974.4927368164062,44.74155807495117,-8.314065933227539,0.7066661715507507
1731877058525.0,0.0,0.0,-20.0,0.0,0.0,0.0,0.0,0.0,0.0,0.0,0.0,0.0,0.0,0.0,0.0,0.0,0.0,10.632463455200195,0.0,0.0,-0.13632424175739288,-78.6469497680664,20.506114959716797,-16430.130859375,-14.718814849853516,-34.31847381591797,-1039.0889892578125,44.37685775756836,-8.551369667053223,0.2297624796628952
1731877058541.0,0.0,0.0,-20.0,0.0,0.0,0.0,0.0,0.0,0.0,0.0,0.0,0.0,0.0,0.0,0.0,0.0,0.0,10.476247787475586,0.0,0.0,-0.14020559191703796,26.93596076965332,-184.57923889160156,-16501.951171875,39.07391357421875,78.0777359008789,-1120.6534423828125,43.95888900756836,-8.09486198425293,-0.30614370107650757
1731877058575.0,0.0,0.0,-20.0,0.0,0.0,0.0,0.0,0.0,0.0,0.0,0.0,0.0,0.0,0.0,0.0,0.0,0.0,10.315583229064941,0.0,0.0,-0.1480524241924286,-77.32999420166016,23.44097137451172,-16296.6748046875,92.89763641357422,4.666963577270508,-1113.5316162109375,44.36758041381836,-8.063419342041016,-0.0682278499007225
1731877058608.0,0.0,0.0,-20.0,0.0,0.0,0.0,0.0,0.0,0.0,0.0,0.0,0.0,0.0,0.0,0.0,0.0,0.0,9.9718656539917,0.0,0.0,-0.1556772142648697,20.24233627319336,5.529024600982666,-16305.7451171875,46.590213775634766,57.738277435302734,-1174.838134765625,44.57373809814453,-7.55791711807251,-0.6163572072982788
1731877058624.0,0.0,0.0,-20.0,0.0,0.0,0.0,0.0,0.0,0.0,0.0,0.0,0.0,0.0,0.0,0.0,0.0,0.0,9.793472290039062,0.0,0.0,-0.15943896770477295,-11.68653392791748,-195.7936248779297,-16493.7265625,119.9962158203125,25.082834243774414,-1062.0701904296875,44.321327209472656,-7.341792106628418,-0.014195339754223824
1731877058641.0,0.0,0.0,-20.0,0.0,0.0,0.0,0.0,0.0,0.0,0.0,0.0,0.0,0.0,0.0,0.0,0.0,0.0,9.61076831817627,0.0,0.0,-0.16312913596630096,-133.41403198242188,20.36276626586914,-16306.4853515625,-21.71682357788086,20.24472999572754,-1030.40576171875,44.36518478393555,-6.757733345031738,0.19736146926879883
1731877058675.0,0.0,0.0,-20.0,0.0,0.0,0.0,0.0,0.0,0.0,0.0,0.0,0.0,0.0,0.0,0.0,0.0,0.0,9.423834800720215,0.0,0.0,-0.17042618989944458,130.3844451904297,16.141326904296875,-16520.41796875,101.01229858398438,-39.57484436035156,-1164.578125,44.2929573059082,-7.630896091461182,-0.08039539307355881
1731877058691.0,0.0,0.0,-20.0,0.0,0.0,0.0,0.0,0.0,0.0,0.0,0.0,0.0,0.0,0.0,0.0,0.0,0.0,9.228541374206543,0.0,0.0,-0.173977792263031,-37.56364822387695,32.038352966308594,-16455.923828125,73.27320098876953,28.983383178710938,-1552.753173828125,44.416404724121094,-7.166726589202881,-0.25135958194732666
1731877058725.0,0.0,0.0,-20.0,0.0,0.0,0.0,0.0,0.0,0.0,0.0,0.0,0.0,0.0,0.0,0.0,0.0,0.0,8.825770378112793,0.0,0.0,-0.18098661303520203,-132.73294067382812,-149.8477783203125,-16497.9140625,122.7383804321289,-48.36355972290039,-1364.7686767578125,44.36680603027344,-6.91971492767334,0.06075943633913994
1731877058725.0,0.0,0.0,-20.0,0.0,0.0,0.0,0.0,0.0,0.0,0.0,0.0,0.0,0.0,0.0,0.0,0.0,0.0,8.825770378112793,0.0,0.0,-0.18098661303520203,-132.73294067382812,-149.8477783203125,-16497.9140625,122.7383804321289,-48.36355972290039,-1364.7686767578125,44.36680603027344,-6.91971492767334,0.06075943633913994
1731877058774.0,0.0,0.0,-20.0,0.0,0.0,0.0,0.0,0.0,0.0,0.0,0.0,0.0,0.0,0.0,0.0,0.0,0.0,8.407021522521973,0.0,0.0,-0.1910456120967865,-199.28038024902344,-78.50887298583984,-16396.892578125,17.98155403137207,-38.7691535949707,-1272.2589111328125,44.356964111328125,-6.309030532836914,0.47471290826797485
1731877058791.0,0.0,0.0,-20.0,0.0,0.0,0.0,0.0,0.0,0.0,0.0,0.0,0.0,0.0,0.0,0.0,0.0,0.0,8.188098907470703,0.0,0.0,-0.19438928365707397,154.77023315429688,58.492855072021484,-16363.0,-25.39556884765625,5.950843811035156,-1672.175048828125,44.46344757080078,-6.221287250518799,0.13686995208263397
1731877058825.0,0.0,0.0,-20.0,0.0,0.0,0.0,0.0,0.0,0.0,0.0,0.0,0.0,0.0,0.0,0.0,0.0,0.0,7.73893404006958,0.0,0.0,-0.20072238147258759,-41.570247650146484,-6.188336372375488,-16456.5703125,-113.0085220336914,8.944993019104004,-1311.482666015625,44.42889404296875,-5.969998836517334,-0.39636263251304626
1731877058825.0,0.0,0.0,-20.0,0.0,0.0,0.0,0.0,0.0,0.0,0.0,0.0,0.0,0.0,0.0,0.0,0.0,0.0,7.73893404006958,0.0,0.0,-0.20072238147258759,-41.570247650146484,-6.188336372375488,-16456.5703125,-113.0085220336914,8.944993019104004,-1311.482666015625,44.42889404296875,-5.969998836517334,-0.39636263251304626
1731877058842.0,0.0,0.0,-20.0,0.0,0.0,0.0,0.0,0.0,0.0,0.0,0.0,0.0,0.0,0.0,0.0,0.0,0.0,7.508922100067139,0.0,0.0,-0.20385131239891052,60.80278015136719,7.107616901397705,-16379.650390625,-11.723647117614746,-13.55302619934082,-1739.844482421875,44.95697784423828,-6.199629783630371,-0.2528693377971649
1731877058892.0,0.0,0.0,-20.0,0.0,0.0,0.0,0.0,0.0,0.0,0.0,0.0,0.0,0.0,0.0,0.0,0.0,0.0,7.03480863571167,0.0,0.0,-0.2128240168094635,-177.46937561035156,129.8043212890625,-16438.216796875,-28.1915225982666,39.42267608642578,-1740.078369140625,44.47425079345703,-5.487081050872803,0.18138359487056732
1731877058908.0,0.0,0.0,-20.0,0.0,0.0,0.0,0.0,0.0,0.0,0.0,0.0,0.0,0.0,0.0,0.0,0.0,0.0,6.790929317474365,0.0,0.0,-0.2156762182712555,67.54464721679688,31.639652252197266,-16397.427734375,42.36077117919922,-6.710109710693359,-2136.356201171875,44.82799530029297,-5.830220699310303,0.15596581995487213
1731877058925.0,0.0,0.0,-20.0,0.0,0.0,0.0,0.0,0.0,0.0,0.0,0.0,0.0,0.0,0.0,0.0,0.0,0.0,6.5437822341918945,0.0,0.0,-0.21848930418491364,131.35728454589844,72.97688293457031,-16501.166015625,50.54182052612305,-39.48984146118164,-1588.2296142578125,44.77885055541992,-5.306880950927734,0.341303288936615
1731877058942.0,0.0,0.0,-20.0,0.0,0.0,0.0,0.0,0.0,0.0,0.0,0.0,0.0,0.0,0.0,0.0,0.0,0.0,6.293412685394287,0.0,0.0,-0.2212214171886444,-9.1462984085083,160.0804901123047,-16358.169921875,84.71350860595703,-26.329702377319336,-1720.71923828125,44.382633209228516,-4.853203296661377,-0.3393588066101074
1731877058992.0,0.0,0.0,-20.0,0.0,0.0,0.0,0.0,0.0,0.0,0.0,0.0,0.0,0.0,0.0,0.0,0.0,0.0,5.7803168296813965,0.0,0.0,-0.22908596694469452,103.44505310058594,-50.85066223144531,-16360.1953125,-1.5782513618469238,99.99845886230469,-1673.8792724609375,44.568790435791016,-4.441043853759766,-0.05833086371421814
1731877059009.0,0.0,0.0,-20.0,0.0,0.0,0.0,0.0,0.0,0.0,0.0,0.0,0.0,0.0,0.0,0.0,0.0,0.0,5.517803192138672,0.0,0.0,-0.23160496354103088,123.2048568725586,-154.7940673828125,-16393.96875,-94.25426483154297,2.976097345352173,-1482.4599609375,44.88368225097656,-4.893919944763184,-0.17220444977283478
1731877059025.0,0.0,0.0,-20.0,0.0,0.0,0.0,0.0,0.0,0.0,0.0,0.0,0.0,0.0,0.0,0.0,0.0,0.0,5.252403259277344,0.0,0.0,-0.23398803174495697,33.510677337646484,101.63163757324219,-16178.326171875,-107.86214447021484,32.05739212036133,-1635.2525634765625,44.79685974121094,-3.9535715579986572,0.3808742165565491
1731877059042.0,0.0,0.0,-20.0,0.0,0.0,0.0,0.0,0.0,0.0,0.0,0.0,0.0,0.0,0.0,0.0,0.0,0.0,4.984272480010986,0.0,0.0,-0.23639388382434845,-25.32166862487793,149.84698486328125,-16382.46875,-66.13162994384766,-132.74383544921875,-2105.518798828125,45.038265228271484,-4.164021968841553,-0.2706349492073059
1731877059075.0,0.0,0.0,-20.0,0.0,0.0,0.0,0.0,0.0,0.0,0.0,0.0,0.0,0.0,0.0,0.0,0.0,0.0,4.713385105133057,0.0,0.0,-0.2409203052520752,83.16963958740234,72.28335571289062,-16387.388671875,-58.221031188964844,-56.97776794433594,-1698.5621337890625,44.787933349609375,-3.7669644355773926,0.3443312644958496
1731877059109.0,0.0,0.0,-20.0,0.0,0.0,0.0,0.0,0.0,0.0,0.0,0.0,0.0,0.0,0.0,0.0,0.0,0.0,4.15878438949585,0.0,0.0,-0.2451791912317276,-79.07137298583984,39.74624252319336,-16358.548828125,103.00334167480469,1.0536835193634033,-1699.567138671875,44.776180267333984,-2.9066367149353027,0.058595191687345505
1731877059125.0,0.0,0.0,-20.0,0.0,0.0,0.0,0.0,0.0,0.0,0.0,0.0,0.0,0.0,0.0,0.0,0.0,0.0,3.8778293132781982,0.0,0.0,-0.24721412360668182,156.77926635742188,44.66032028198242,-16447.712890625,-38.82884979248047,-77.67736053466797,-1906.2513427734375,44.868595123291016,-2.6969900131225586,-0.14403429627418518
